{
  "name": "ADADAS",
  "total_rows": 12463,
  "unique_subjects": 254,
  "columns": [
    {
      "name": "STUDYID",
      "type": "string"
    },
    {
      "name": "SITEID",
      "type": "string"
    },
    {
      "name": "SITEGR1",
      "type": "string"
    },
    {
      "name": "USUBJID",
      "type": "string"
    },
    {
      "name": "TRTSDT",
      "type": "number"
    },
    {
      "name": "TRTEDT",
      "type": "number"
    },
    {
      "name": "TRTP",
      "type": "string"
    },
    {
      "name": "TRTPN",
      "type": "number"
    },
    {
      "name": "AGE",
      "type": "number"
    },
    {
      "name": "AGEGR1",
      "type": "string"
    },
    {
      "name": "AGEGR1N",
      "type": "number"
    },
    {
      "name": "RACE",
      "type": "string"
    },
    {
      "name": "RACEN",
      "type": "number"
    },
    {
      "name": "SEX",
      "type": "string"
    },
    {
      "name": "ITTFL",
      "type": "string"
    },
    {
      "name": "EFFFL",
      "type": "string"
    },
    {
      "name": "COMP24FL",
      "type": "string"
    },
    {
      "name": "AVISIT",
      "type": "string"
    },
    {
      "name": "AVISITN",
      "type": "number"
    },
    {
      "name": "VISIT",
      "type": "string"
    },
    {
      "name": "VISITNUM",
      "type": "number"
    },
    {
      "name": "ADY",
      "type": "number"
    },
    {
      "name": "ADT",
      "type": "number"
    },
    {
      "name": "PARAM",
      "type": "string"
    },
    {
      "name": "PARAMCD",
      "type": "string"
    },
    {
      "name": "PARAMN",
      "type": "number"
    },
    {
      "name": "AVAL",
      "type": "number"
    },
    {
      "name": "BASE",
      "type": "number"
    },
    {
      "name": "CHG",
      "type": "number"
    },
    {
      "name": "PCHG",
      "type": "number"
    },
    {
      "name": "ABLFL",
      "type": "string"
    },
    {
      "name": "ANL01FL",
      "type": "string"
    },
    {
      "name": "DTYPE",
      "type": "string"
    },
    {
      "name": "AWRANGE",
      "type": "string"
    },
    {
      "name": "AWTARGET",
      "type": "number"
    },
    {
      "name": "AWTDIFF",
      "type": "number"
    },
    {
      "name": "AWLO",
      "type": "number"
    },
    {
      "name": "AWHI",
      "type": "number"
    },
    {
      "name": "AWU",
      "type": "string"
    },
    {
      "name": "QSSEQ",
      "type": "number"
    }
  ],
  "rows": [
    {
      "STUDYID": "CDISCPILOT01",
      "SITEID": "701",
      "SITEGR1": "701",
      "USUBJID": "01-701-1015",
      "TRTSDT": 19725.0,
      "TRTEDT": 19906.0,
      "TRTP": "Placebo",
      "TRTPN": 5.397605346934028e-79,
      "AGE": 63.0,
      "AGEGR1": "<65",
      "AGEGR1N": 1.0,
      "RACE": "WHITE",
      "RACEN": 1.0,
      "SEX": "F",
      "ITTFL": "Y",
      "EFFFL": "Y",
      "COMP24FL": "Y",
      "AVISIT": "Baseline",
      "AVISITN": 5.397605346934028e-79,
      "VISIT": "BASELINE",
      "VISITNUM": 3.0,
      "ADY": 1.0,
      "ADT": 19725.0,
      "PARAM": "Word Recall Task",
      "PARAMCD": "ACITM01",
      "PARAMN": 1.0,
      "AVAL": 3.0,
      "BASE": 3.0,
      "CHG": NaN,
      "PCHG": NaN,
      "ABLFL": "Y",
      "ANL01FL": "Y",
      "DTYPE": "",
      "AWRANGE": "<=1",
      "AWTARGET": 1.0,
      "AWTDIFF": 5.397605346934028e-79,
      "AWLO": NaN,
      "AWHI": 1.0,
      "AWU": "DAYS",
      "QSSEQ": 5001.0
    },
    {
      "STUDYID": "CDISCPILOT01",
      "SITEID": "701",
      "SITEGR1": "701",
      "USUBJID": "01-701-1015",
      "TRTSDT": 19725.0,
      "TRTEDT": 19906.0,
      "TRTP": "Placebo",
      "TRTPN": 5.397605346934028e-79,
      "AGE": 63.0,
      "AGEGR1": "<65",
      "AGEGR1N": 1.0,
      "RACE": "WHITE",
      "RACEN": 1.0,
      "SEX": "F",
      "ITTFL": "Y",
      "EFFFL": "Y",
      "COMP24FL": "Y",
      "AVISIT": "Week 8",
      "AVISITN": 8.0,
      "VISIT": "WEEK 8",
      "VISITNUM": 8.0,
      "ADY": 63.0,
      "ADT": 19787.0,
      "PARAM": "Word Recall Task",
      "PARAMCD": "ACITM01",
      "PARAMN": 1.0,
      "AVAL": 2.0,
      "BASE": 3.0,
      "CHG": -1.0,
      "PCHG": -33.33333333333333,
      "ABLFL": "",
      "ANL01FL": "Y",
      "DTYPE": "",
      "AWRANGE": "2-84",
      "AWTARGET": 56.0,
      "AWTDIFF": 7.0,
      "AWLO": 2.0,
      "AWHI": 84.0,
      "AWU": "DAYS",
      "QSSEQ": 5016.0
    },
    {
      "STUDYID": "CDISCPILOT01",
      "SITEID": "701",
      "SITEGR1": "701",
      "USUBJID": "01-701-1015",
      "TRTSDT": 19725.0,
      "TRTEDT": 19906.0,
      "TRTP": "Placebo",
      "TRTPN": 5.397605346934028e-79,
      "AGE": 63.0,
      "AGEGR1": "<65",
      "AGEGR1N": 1.0,
      "RACE": "WHITE",
      "RACEN": 1.0,
      "SEX": "F",
      "ITTFL": "Y",
      "EFFFL": "Y",
      "COMP24FL": "Y",
      "AVISIT": "Week 16",
      "AVISITN": 16.0,
      "VISIT": "WEEK 16",
      "VISITNUM": 10.0,
      "ADY": 126.0,
      "ADT": 19850.0,
      "PARAM": "Word Recall Task",
      "PARAMCD": "ACITM01",
      "PARAMN": 1.0,
      "AVAL": 4.0,
      "BASE": 3.0,
      "CHG": 1.0,
      "PCHG": 33.33333333333333,
      "ABLFL": "",
      "ANL01FL": "Y",
      "DTYPE": "",
      "AWRANGE": "85-140",
      "AWTARGET": 112.0,
      "AWTDIFF": 14.0,
      "AWLO": 85.0,
      "AWHI": 140.0,
      "AWU": "DAYS",
      "QSSEQ": 5031.0
    },
    {
      "STUDYID": "CDISCPILOT01",
      "SITEID": "701",
      "SITEGR1": "701",
      "USUBJID": "01-701-1015",
      "TRTSDT": 19725.0,
      "TRTEDT": 19906.0,
      "TRTP": "Placebo",
      "TRTPN": 5.397605346934028e-79,
      "AGE": 63.0,
      "AGEGR1": "<65",
      "AGEGR1N": 1.0,
      "RACE": "WHITE",
      "RACEN": 1.0,
      "SEX": "F",
      "ITTFL": "Y",
      "EFFFL": "Y",
      "COMP24FL": "Y",
      "AVISIT": "Week 24",
      "AVISITN": 24.0,
      "VISIT": "WEEK 24",
      "VISITNUM": 12.0,
      "ADY": 168.0,
      "ADT": 19892.0,
      "PARAM": "Word Recall Task",
      "PARAMCD": "ACITM01",
      "PARAMN": 1.0,
      "AVAL": 3.0,
      "BASE": 3.0,
      "CHG": 5.397605346934028e-79,
      "PCHG": 5.397605346934028e-79,
      "ABLFL": "",
      "ANL01FL": "Y",
      "DTYPE": "",
      "AWRANGE": ">140",
      "AWTARGET": 168.0,
      "AWTDIFF": 5.397605346934028e-79,
      "AWLO": 141.0,
      "AWHI": NaN,
      "AWU": "DAYS",
      "QSSEQ": 5046.0
    },
    {
      "STUDYID": "CDISCPILOT01",
      "SITEID": "701",
      "SITEGR1": "701",
      "USUBJID": "01-701-1015",
      "TRTSDT": 19725.0,
      "TRTEDT": 19906.0,
      "TRTP": "Placebo",
      "TRTPN": 5.397605346934028e-79,
      "AGE": 63.0,
      "AGEGR1": "<65",
      "AGEGR1N": 1.0,
      "RACE": "WHITE",
      "RACEN": 1.0,
      "SEX": "F",
      "ITTFL": "Y",
      "EFFFL": "Y",
      "COMP24FL": "Y",
      "AVISIT": "Baseline",
      "AVISITN": 5.397605346934028e-79,
      "VISIT": "BASELINE",
      "VISITNUM": 3.0,
      "ADY": 1.0,
      "ADT": 19725.0,
      "PARAM": "Naming Objects And Fingers (Refer To 5 C",
      "PARAMCD": "ACITM02",
      "PARAMN": 2.0,
      "AVAL": 1.0,
      "BASE": 1.0,
      "CHG": NaN,
      "PCHG": NaN,
      "ABLFL": "Y",
      "ANL01FL": "Y",
      "DTYPE": "",
      "AWRANGE": "<=1",
      "AWTARGET": 1.0,
      "AWTDIFF": 5.397605346934028e-79,
      "AWLO": NaN,
      "AWHI": 1.0,
      "AWU": "DAYS",
      "QSSEQ": 5002.0
    },
    {
      "STUDYID": "CDISCPILOT01",
      "SITEID": "701",
      "SITEGR1": "701",
      "USUBJID": "01-701-1015",
      "TRTSDT": 19725.0,
      "TRTEDT": 19906.0,
      "TRTP": "Placebo",
      "TRTPN": 5.397605346934028e-79,
      "AGE": 63.0,
      "AGEGR1": "<65",
      "AGEGR1N": 1.0,
      "RACE": "WHITE",
      "RACEN": 1.0,
      "SEX": "F",
      "ITTFL": "Y",
      "EFFFL": "Y",
      "COMP24FL": "Y",
      "AVISIT": "Week 8",
      "AVISITN": 8.0,
      "VISIT": "WEEK 8",
      "VISITNUM": 8.0,
      "ADY": 63.0,
      "ADT": 19787.0,
      "PARAM": "Naming Objects And Fingers (Refer To 5 C",
      "PARAMCD": "ACITM02",
      "PARAMN": 2.0,
      "AVAL": 5.397605346934028e-79,
      "BASE": 1.0,
      "CHG": -1.0,
      "PCHG": -100.0,
      "ABLFL": "",
      "ANL01FL": "Y",
      "DTYPE": "",
      "AWRANGE": "2-84",
      "AWTARGET": 56.0,
      "AWTDIFF": 7.0,
      "AWLO": 2.0,
      "AWHI": 84.0,
      "AWU": "DAYS",
      "QSSEQ": 5017.0
    },
    {
      "STUDYID": "CDISCPILOT01",
      "SITEID": "701",
      "SITEGR1": "701",
      "USUBJID": "01-701-1015",
      "TRTSDT": 19725.0,
      "TRTEDT": 19906.0,
      "TRTP": "Placebo",
      "TRTPN": 5.397605346934028e-79,
      "AGE": 63.0,
      "AGEGR1": "<65",
      "AGEGR1N": 1.0,
      "RACE": "WHITE",
      "RACEN": 1.0,
      "SEX": "F",
      "ITTFL": "Y",
      "EFFFL": "Y",
      "COMP24FL": "Y",
      "AVISIT": "Week 16",
      "AVISITN": 16.0,
      "VISIT": "WEEK 16",
      "VISITNUM": 10.0,
      "ADY": 126.0,
      "ADT": 19850.0,
      "PARAM": "Naming Objects And Fingers (Refer To 5 C",
      "PARAMCD": "ACITM02",
      "PARAMN": 2.0,
      "AVAL": 5.397605346934028e-79,
      "BASE": 1.0,
      "CHG": -1.0,
      "PCHG": -100.0,
      "ABLFL": "",
      "ANL01FL": "Y",
      "DTYPE": "",
      "AWRANGE": "85-140",
      "AWTARGET": 112.0,
      "AWTDIFF": 14.0,
      "AWLO": 85.0,
      "AWHI": 140.0,
      "AWU": "DAYS",
      "QSSEQ": 5032.0
    },
    {
      "STUDYID": "CDISCPILOT01",
      "SITEID": "701",
      "SITEGR1": "701",
      "USUBJID": "01-701-1015",
      "TRTSDT": 19725.0,
      "TRTEDT": 19906.0,
      "TRTP": "Placebo",
      "TRTPN": 5.397605346934028e-79,
      "AGE": 63.0,
      "AGEGR1": "<65",
      "AGEGR1N": 1.0,
      "RACE": "WHITE",
      "RACEN": 1.0,
      "SEX": "F",
      "ITTFL": "Y",
      "EFFFL": "Y",
      "COMP24FL": "Y",
      "AVISIT": "Week 24",
      "AVISITN": 24.0,
      "VISIT": "WEEK 24",
      "VISITNUM": 12.0,
      "ADY": 168.0,
      "ADT": 19892.0,
      "PARAM": "Naming Objects And Fingers (Refer To 5 C",
      "PARAMCD": "ACITM02",
      "PARAMN": 2.0,
      "AVAL": 5.397605346934028e-79,
      "BASE": 1.0,
      "CHG": -1.0,
      "PCHG": -100.0,
      "ABLFL": "",
      "ANL01FL": "Y",
      "DTYPE": "",
      "AWRANGE": ">140",
      "AWTARGET": 168.0,
      "AWTDIFF": 5.397605346934028e-79,
      "AWLO": 141.0,
      "AWHI": NaN,
      "AWU": "DAYS",
      "QSSEQ": 5047.0
    },
    {
      "STUDYID": "CDISCPILOT01",
      "SITEID": "701",
      "SITEGR1": "701",
      "USUBJID": "01-701-1015",
      "TRTSDT": 19725.0,
      "TRTEDT": 19906.0,
      "TRTP": "Placebo",
      "TRTPN": 5.397605346934028e-79,
      "AGE": 63.0,
      "AGEGR1": "<65",
      "AGEGR1N": 1.0,
      "RACE": "WHITE",
      "RACEN": 1.0,
      "SEX": "F",
      "ITTFL": "Y",
      "EFFFL": "Y",
      "COMP24FL": "Y",
      "AVISIT": "Baseline",
      "AVISITN": 5.397605346934028e-79,
      "VISIT": "BASELINE",
      "VISITNUM": 3.0,
      "ADY": 1.0,
      "ADT": 19725.0,
      "PARAM": "Delayed Word Recall",
      "PARAMCD": "ACITM03",
      "PARAMN": 3.0,
      "AVAL": 3.0,
      "BASE": 3.0,
      "CHG": NaN,
      "PCHG": NaN,
      "ABLFL": "Y",
      "ANL01FL": "Y",
      "DTYPE": "",
      "AWRANGE": "<=1",
      "AWTARGET": 1.0,
      "AWTDIFF": 5.397605346934028e-79,
      "AWLO": NaN,
      "AWHI": 1.0,
      "AWU": "DAYS",
      "QSSEQ": 5003.0
    },
    {
      "STUDYID": "CDISCPILOT01",
      "SITEID": "701",
      "SITEGR1": "701",
      "USUBJID": "01-701-1015",
      "TRTSDT": 19725.0,
      "TRTEDT": 19906.0,
      "TRTP": "Placebo",
      "TRTPN": 5.397605346934028e-79,
      "AGE": 63.0,
      "AGEGR1": "<65",
      "AGEGR1N": 1.0,
      "RACE": "WHITE",
      "RACEN": 1.0,
      "SEX": "F",
      "ITTFL": "Y",
      "EFFFL": "Y",
      "COMP24FL": "Y",
      "AVISIT": "Week 8",
      "AVISITN": 8.0,
      "VISIT": "WEEK 8",
      "VISITNUM": 8.0,
      "ADY": 63.0,
      "ADT": 19787.0,
      "PARAM": "Delayed Word Recall",
      "PARAMCD": "ACITM03",
      "PARAMN": 3.0,
      "AVAL": 3.0,
      "BASE": 3.0,
      "CHG": 5.397605346934028e-79,
      "PCHG": 5.397605346934028e-79,
      "ABLFL": "",
      "ANL01FL": "Y",
      "DTYPE": "",
      "AWRANGE": "2-84",
      "AWTARGET": 56.0,
      "AWTDIFF": 7.0,
      "AWLO": 2.0,
      "AWHI": 84.0,
      "AWU": "DAYS",
      "QSSEQ": 5018.0
    },
    {
      "STUDYID": "CDISCPILOT01",
      "SITEID": "701",
      "SITEGR1": "701",
      "USUBJID": "01-701-1015",
      "TRTSDT": 19725.0,
      "TRTEDT": 19906.0,
      "TRTP": "Placebo",
      "TRTPN": 5.397605346934028e-79,
      "AGE": 63.0,
      "AGEGR1": "<65",
      "AGEGR1N": 1.0,
      "RACE": "WHITE",
      "RACEN": 1.0,
      "SEX": "F",
      "ITTFL": "Y",
      "EFFFL": "Y",
      "COMP24FL": "Y",
      "AVISIT": "Week 16",
      "AVISITN": 16.0,
      "VISIT": "WEEK 16",
      "VISITNUM": 10.0,
      "ADY": 126.0,
      "ADT": 19850.0,
      "PARAM": "Delayed Word Recall",
      "PARAMCD": "ACITM03",
      "PARAMN": 3.0,
      "AVAL": 1.0,
      "BASE": 3.0,
      "CHG": -2.0,
      "PCHG": -66.66666666666666,
      "ABLFL": "",
      "ANL01FL": "Y",
      "DTYPE": "",
      "AWRANGE": "85-140",
      "AWTARGET": 112.0,
      "AWTDIFF": 14.0,
      "AWLO": 85.0,
      "AWHI": 140.0,
      "AWU": "DAYS",
      "QSSEQ": 5033.0
    },
    {
      "STUDYID": "CDISCPILOT01",
      "SITEID": "701",
      "SITEGR1": "701",
      "USUBJID": "01-701-1015",
      "TRTSDT": 19725.0,
      "TRTEDT": 19906.0,
      "TRTP": "Placebo",
      "TRTPN": 5.397605346934028e-79,
      "AGE": 63.0,
      "AGEGR1": "<65",
      "AGEGR1N": 1.0,
      "RACE": "WHITE",
      "RACEN": 1.0,
      "SEX": "F",
      "ITTFL": "Y",
      "EFFFL": "Y",
      "COMP24FL": "Y",
      "AVISIT": "Week 24",
      "AVISITN": 24.0,
      "VISIT": "WEEK 24",
      "VISITNUM": 12.0,
      "ADY": 168.0,
      "ADT": 19892.0,
      "PARAM": "Delayed Word Recall",
      "PARAMCD": "ACITM03",
      "PARAMN": 3.0,
      "AVAL": 2.0,
      "BASE": 3.0,
      "CHG": -1.0,
      "PCHG": -33.33333333333333,
      "ABLFL": "",
      "ANL01FL": "Y",
      "DTYPE": "",
      "AWRANGE": ">140",
      "AWTARGET": 168.0,
      "AWTDIFF": 5.397605346934028e-79,
      "AWLO": 141.0,
      "AWHI": NaN,
      "AWU": "DAYS",
      "QSSEQ": 5048.0
    },
    {
      "STUDYID": "CDISCPILOT01",
      "SITEID": "701",
      "SITEGR1": "701",
      "USUBJID": "01-701-1015",
      "TRTSDT": 19725.0,
      "TRTEDT": 19906.0,
      "TRTP": "Placebo",
      "TRTPN": 5.397605346934028e-79,
      "AGE": 63.0,
      "AGEGR1": "<65",
      "AGEGR1N": 1.0,
      "RACE": "WHITE",
      "RACEN": 1.0,
      "SEX": "F",
      "ITTFL": "Y",
      "EFFFL": "Y",
      "COMP24FL": "Y",
      "AVISIT": "Baseline",
      "AVISITN": 5.397605346934028e-79,
      "VISIT": "BASELINE",
      "VISITNUM": 3.0,
      "ADY": 1.0,
      "ADT": 19725.0,
      "PARAM": "Commands",
      "PARAMCD": "ACITM04",
      "PARAMN": 4.0,
      "AVAL": 5.397605346934028e-79,
      "BASE": 5.397605346934028e-79,
      "CHG": NaN,
      "PCHG": NaN,
      "ABLFL": "Y",
      "ANL01FL": "Y",
      "DTYPE": "",
      "AWRANGE": "<=1",
      "AWTARGET": 1.0,
      "AWTDIFF": 5.397605346934028e-79,
      "AWLO": NaN,
      "AWHI": 1.0,
      "AWU": "DAYS",
      "QSSEQ": 5004.0
    },
    {
      "STUDYID": "CDISCPILOT01",
      "SITEID": "701",
      "SITEGR1": "701",
      "USUBJID": "01-701-1015",
      "TRTSDT": 19725.0,
      "TRTEDT": 19906.0,
      "TRTP": "Placebo",
      "TRTPN": 5.397605346934028e-79,
      "AGE": 63.0,
      "AGEGR1": "<65",
      "AGEGR1N": 1.0,
      "RACE": "WHITE",
      "RACEN": 1.0,
      "SEX": "F",
      "ITTFL": "Y",
      "EFFFL": "Y",
      "COMP24FL": "Y",
      "AVISIT": "Week 8",
      "AVISITN": 8.0,
      "VISIT": "WEEK 8",
      "VISITNUM": 8.0,
      "ADY": 63.0,
      "ADT": 19787.0,
      "PARAM": "Commands",
      "PARAMCD": "ACITM04",
      "PARAMN": 4.0,
      "AVAL": 5.397605346934028e-79,
      "BASE": 5.397605346934028e-79,
      "CHG": 5.397605346934028e-79,
      "PCHG": NaN,
      "ABLFL": "",
      "ANL01FL": "Y",
      "DTYPE": "",
      "AWRANGE": "2-84",
      "AWTARGET": 56.0,
      "AWTDIFF": 7.0,
      "AWLO": 2.0,
      "AWHI": 84.0,
      "AWU": "DAYS",
      "QSSEQ": 5019.0
    },
    {
      "STUDYID": "CDISCPILOT01",
      "SITEID": "701",
      "SITEGR1": "701",
      "USUBJID": "01-701-1015",
      "TRTSDT": 19725.0,
      "TRTEDT": 19906.0,
      "TRTP": "Placebo",
      "TRTPN": 5.397605346934028e-79,
      "AGE": 63.0,
      "AGEGR1": "<65",
      "AGEGR1N": 1.0,
      "RACE": "WHITE",
      "RACEN": 1.0,
      "SEX": "F",
      "ITTFL": "Y",
      "EFFFL": "Y",
      "COMP24FL": "Y",
      "AVISIT": "Week 16",
      "AVISITN": 16.0,
      "VISIT": "WEEK 16",
      "VISITNUM": 10.0,
      "ADY": 126.0,
      "ADT": 19850.0,
      "PARAM": "Commands",
      "PARAMCD": "ACITM04",
      "PARAMN": 4.0,
      "AVAL": 5.397605346934028e-79,
      "BASE": 5.397605346934028e-79,
      "CHG": 5.397605346934028e-79,
      "PCHG": NaN,
      "ABLFL": "",
      "ANL01FL": "Y",
      "DTYPE": "",
      "AWRANGE": "85-140",
      "AWTARGET": 112.0,
      "AWTDIFF": 14.0,
      "AWLO": 85.0,
      "AWHI": 140.0,
      "AWU": "DAYS",
      "QSSEQ": 5034.0
    },
    {
      "STUDYID": "CDISCPILOT01",
      "SITEID": "701",
      "SITEGR1": "701",
      "USUBJID": "01-701-1015",
      "TRTSDT": 19725.0,
      "TRTEDT": 19906.0,
      "TRTP": "Placebo",
      "TRTPN": 5.397605346934028e-79,
      "AGE": 63.0,
      "AGEGR1": "<65",
      "AGEGR1N": 1.0,
      "RACE": "WHITE",
      "RACEN": 1.0,
      "SEX": "F",
      "ITTFL": "Y",
      "EFFFL": "Y",
      "COMP24FL": "Y",
      "AVISIT": "Week 24",
      "AVISITN": 24.0,
      "VISIT": "WEEK 24",
      "VISITNUM": 12.0,
      "ADY": 168.0,
      "ADT": 19892.0,
      "PARAM": "Commands",
      "PARAMCD": "ACITM04",
      "PARAMN": 4.0,
      "AVAL": 5.397605346934028e-79,
      "BASE": 5.397605346934028e-79,
      "CHG": 5.397605346934028e-79,
      "PCHG": NaN,
      "ABLFL": "",
      "ANL01FL": "Y",
      "DTYPE": "",
      "AWRANGE": ">140",
      "AWTARGET": 168.0,
      "AWTDIFF": 5.397605346934028e-79,
      "AWLO": 141.0,
      "AWHI": NaN,
      "AWU": "DAYS",
      "QSSEQ": 5049.0
    },
    {
      "STUDYID": "CDISCPILOT01",
      "SITEID": "701",
      "SITEGR1": "701",
      "USUBJID": "01-701-1015",
      "TRTSDT": 19725.0,
      "TRTEDT": 19906.0,
      "TRTP": "Placebo",
      "TRTPN": 5.397605346934028e-79,
      "AGE": 63.0,
      "AGEGR1": "<65",
      "AGEGR1N": 1.0,
      "RACE": "WHITE",
      "RACEN": 1.0,
      "SEX": "F",
      "ITTFL": "Y",
      "EFFFL": "Y",
      "COMP24FL": "Y",
      "AVISIT": "Baseline",
      "AVISITN": 5.397605346934028e-79,
      "VISIT": "BASELINE",
      "VISITNUM": 3.0,
      "ADY": 1.0,
      "ADT": 19725.0,
      "PARAM": "Constructional Praxis",
      "PARAMCD": "ACITM05",
      "PARAMN": 5.0,
      "AVAL": 3.0,
      "BASE": 3.0,
      "CHG": NaN,
      "PCHG": NaN,
      "ABLFL": "Y",
      "ANL01FL": "Y",
      "DTYPE": "",
      "AWRANGE": "<=1",
      "AWTARGET": 1.0,
      "AWTDIFF": 5.397605346934028e-79,
      "AWLO": NaN,
      "AWHI": 1.0,
      "AWU": "DAYS",
      "QSSEQ": 5005.0
    },
    {
      "STUDYID": "CDISCPILOT01",
      "SITEID": "701",
      "SITEGR1": "701",
      "USUBJID": "01-701-1015",
      "TRTSDT": 19725.0,
      "TRTEDT": 19906.0,
      "TRTP": "Placebo",
      "TRTPN": 5.397605346934028e-79,
      "AGE": 63.0,
      "AGEGR1": "<65",
      "AGEGR1N": 1.0,
      "RACE": "WHITE",
      "RACEN": 1.0,
      "SEX": "F",
      "ITTFL": "Y",
      "EFFFL": "Y",
      "COMP24FL": "Y",
      "AVISIT": "Week 8",
      "AVISITN": 8.0,
      "VISIT": "WEEK 8",
      "VISITNUM": 8.0,
      "ADY": 63.0,
      "ADT": 19787.0,
      "PARAM": "Constructional Praxis",
      "PARAMCD": "ACITM05",
      "PARAMN": 5.0,
      "AVAL": 2.0,
      "BASE": 3.0,
      "CHG": -1.0,
      "PCHG": -33.33333333333333,
      "ABLFL": "",
      "ANL01FL": "Y",
      "DTYPE": "",
      "AWRANGE": "2-84",
      "AWTARGET": 56.0,
      "AWTDIFF": 7.0,
      "AWLO": 2.0,
      "AWHI": 84.0,
      "AWU": "DAYS",
      "QSSEQ": 5020.0
    },
    {
      "STUDYID": "CDISCPILOT01",
      "SITEID": "701",
      "SITEGR1": "701",
      "USUBJID": "01-701-1015",
      "TRTSDT": 19725.0,
      "TRTEDT": 19906.0,
      "TRTP": "Placebo",
      "TRTPN": 5.397605346934028e-79,
      "AGE": 63.0,
      "AGEGR1": "<65",
      "AGEGR1N": 1.0,
      "RACE": "WHITE",
      "RACEN": 1.0,
      "SEX": "F",
      "ITTFL": "Y",
      "EFFFL": "Y",
      "COMP24FL": "Y",
      "AVISIT": "Week 16",
      "AVISITN": 16.0,
      "VISIT": "WEEK 16",
      "VISITNUM": 10.0,
      "ADY": 126.0,
      "ADT": 19850.0,
      "PARAM": "Constructional Praxis",
      "PARAMCD": "ACITM05",
      "PARAMN": 5.0,
      "AVAL": 2.0,
      "BASE": 3.0,
      "CHG": -1.0,
      "PCHG": -33.33333333333333,
      "ABLFL": "",
      "ANL01FL": "Y",
      "DTYPE": "",
      "AWRANGE": "85-140",
      "AWTARGET": 112.0,
      "AWTDIFF": 14.0,
      "AWLO": 85.0,
      "AWHI": 140.0,
      "AWU": "DAYS",
      "QSSEQ": 5035.0
    },
    {
      "STUDYID": "CDISCPILOT01",
      "SITEID": "701",
      "SITEGR1": "701",
      "USUBJID": "01-701-1015",
      "TRTSDT": 19725.0,
      "TRTEDT": 19906.0,
      "TRTP": "Placebo",
      "TRTPN": 5.397605346934028e-79,
      "AGE": 63.0,
      "AGEGR1": "<65",
      "AGEGR1N": 1.0,
      "RACE": "WHITE",
      "RACEN": 1.0,
      "SEX": "F",
      "ITTFL": "Y",
      "EFFFL": "Y",
      "COMP24FL": "Y",
      "AVISIT": "Week 24",
      "AVISITN": 24.0,
      "VISIT": "WEEK 24",
      "VISITNUM": 12.0,
      "ADY": 168.0,
      "ADT": 19892.0,
      "PARAM": "Constructional Praxis",
      "PARAMCD": "ACITM05",
      "PARAMN": 5.0,
      "AVAL": 3.0,
      "BASE": 3.0,
      "CHG": 5.397605346934028e-79,
      "PCHG": 5.397605346934028e-79,
      "ABLFL": "",
      "ANL01FL": "Y",
      "DTYPE": "",
      "AWRANGE": ">140",
      "AWTARGET": 168.0,
      "AWTDIFF": 5.397605346934028e-79,
      "AWLO": 141.0,
      "AWHI": NaN,
      "AWU": "DAYS",
      "QSSEQ": 5050.0
    },
    {
      "STUDYID": "CDISCPILOT01",
      "SITEID": "701",
      "SITEGR1": "701",
      "USUBJID": "01-701-1015",
      "TRTSDT": 19725.0,
      "TRTEDT": 19906.0,
      "TRTP": "Placebo",
      "TRTPN": 5.397605346934028e-79,
      "AGE": 63.0,
      "AGEGR1": "<65",
      "AGEGR1N": 1.0,
      "RACE": "WHITE",
      "RACEN": 1.0,
      "SEX": "F",
      "ITTFL": "Y",
      "EFFFL": "Y",
      "COMP24FL": "Y",
      "AVISIT": "Baseline",
      "AVISITN": 5.397605346934028e-79,
      "VISIT": "BASELINE",
      "VISITNUM": 3.0,
      "ADY": 1.0,
      "ADT": 19725.0,
      "PARAM": "Ideational Praxis",
      "PARAMCD": "ACITM06",
      "PARAMN": 6.0,
      "AVAL": 5.397605346934028e-79,
      "BASE": 5.397605346934028e-79,
      "CHG": NaN,
      "PCHG": NaN,
      "ABLFL": "Y",
      "ANL01FL": "Y",
      "DTYPE": "",
      "AWRANGE": "<=1",
      "AWTARGET": 1.0,
      "AWTDIFF": 5.397605346934028e-79,
      "AWLO": NaN,
      "AWHI": 1.0,
      "AWU": "DAYS",
      "QSSEQ": 5006.0
    },
    {
      "STUDYID": "CDISCPILOT01",
      "SITEID": "701",
      "SITEGR1": "701",
      "USUBJID": "01-701-1015",
      "TRTSDT": 19725.0,
      "TRTEDT": 19906.0,
      "TRTP": "Placebo",
      "TRTPN": 5.397605346934028e-79,
      "AGE": 63.0,
      "AGEGR1": "<65",
      "AGEGR1N": 1.0,
      "RACE": "WHITE",
      "RACEN": 1.0,
      "SEX": "F",
      "ITTFL": "Y",
      "EFFFL": "Y",
      "COMP24FL": "Y",
      "AVISIT": "Week 8",
      "AVISITN": 8.0,
      "VISIT": "WEEK 8",
      "VISITNUM": 8.0,
      "ADY": 63.0,
      "ADT": 19787.0,
      "PARAM": "Ideational Praxis",
      "PARAMCD": "ACITM06",
      "PARAMN": 6.0,
      "AVAL": 5.397605346934028e-79,
      "BASE": 5.397605346934028e-79,
      "CHG": 5.397605346934028e-79,
      "PCHG": NaN,
      "ABLFL": "",
      "ANL01FL": "Y",
      "DTYPE": "",
      "AWRANGE": "2-84",
      "AWTARGET": 56.0,
      "AWTDIFF": 7.0,
      "AWLO": 2.0,
      "AWHI": 84.0,
      "AWU": "DAYS",
      "QSSEQ": 5021.0
    },
    {
      "STUDYID": "CDISCPILOT01",
      "SITEID": "701",
      "SITEGR1": "701",
      "USUBJID": "01-701-1015",
      "TRTSDT": 19725.0,
      "TRTEDT": 19906.0,
      "TRTP": "Placebo",
      "TRTPN": 5.397605346934028e-79,
      "AGE": 63.0,
      "AGEGR1": "<65",
      "AGEGR1N": 1.0,
      "RACE": "WHITE",
      "RACEN": 1.0,
      "SEX": "F",
      "ITTFL": "Y",
      "EFFFL": "Y",
      "COMP24FL": "Y",
      "AVISIT": "Week 16",
      "AVISITN": 16.0,
      "VISIT": "WEEK 16",
      "VISITNUM": 10.0,
      "ADY": 126.0,
      "ADT": 19850.0,
      "PARAM": "Ideational Praxis",
      "PARAMCD": "ACITM06",
      "PARAMN": 6.0,
      "AVAL": 5.397605346934028e-79,
      "BASE": 5.397605346934028e-79,
      "CHG": 5.397605346934028e-79,
      "PCHG": NaN,
      "ABLFL": "",
      "ANL01FL": "Y",
      "DTYPE": "",
      "AWRANGE": "85-140",
      "AWTARGET": 112.0,
      "AWTDIFF": 14.0,
      "AWLO": 85.0,
      "AWHI": 140.0,
      "AWU": "DAYS",
      "QSSEQ": 5036.0
    },
    {
      "STUDYID": "CDISCPILOT01",
      "SITEID": "701",
      "SITEGR1": "701",
      "USUBJID": "01-701-1015",
      "TRTSDT": 19725.0,
      "TRTEDT": 19906.0,
      "TRTP": "Placebo",
      "TRTPN": 5.397605346934028e-79,
      "AGE": 63.0,
      "AGEGR1": "<65",
      "AGEGR1N": 1.0,
      "RACE": "WHITE",
      "RACEN": 1.0,
      "SEX": "F",
      "ITTFL": "Y",
      "EFFFL": "Y",
      "COMP24FL": "Y",
      "AVISIT": "Week 24",
      "AVISITN": 24.0,
      "VISIT": "WEEK 24",
      "VISITNUM": 12.0,
      "ADY": 168.0,
      "ADT": 19892.0,
      "PARAM": "Ideational Praxis",
      "PARAMCD": "ACITM06",
      "PARAMN": 6.0,
      "AVAL": 5.397605346934028e-79,
      "BASE": 5.397605346934028e-79,
      "CHG": 5.397605346934028e-79,
      "PCHG": NaN,
      "ABLFL": "",
      "ANL01FL": "Y",
      "DTYPE": "",
      "AWRANGE": ">140",
      "AWTARGET": 168.0,
      "AWTDIFF": 5.397605346934028e-79,
      "AWLO": 141.0,
      "AWHI": NaN,
      "AWU": "DAYS",
      "QSSEQ": 5051.0
    },
    {
      "STUDYID": "CDISCPILOT01",
      "SITEID": "701",
      "SITEGR1": "701",
      "USUBJID": "01-701-1015",
      "TRTSDT": 19725.0,
      "TRTEDT": 19906.0,
      "TRTP": "Placebo",
      "TRTPN": 5.397605346934028e-79,
      "AGE": 63.0,
      "AGEGR1": "<65",
      "AGEGR1N": 1.0,
      "RACE": "WHITE",
      "RACEN": 1.0,
      "SEX": "F",
      "ITTFL": "Y",
      "EFFFL": "Y",
      "COMP24FL": "Y",
      "AVISIT": "Baseline",
      "AVISITN": 5.397605346934028e-79,
      "VISIT": "BASELINE",
      "VISITNUM": 3.0,
      "ADY": 1.0,
      "ADT": 19725.0,
      "PARAM": "Orientation",
      "PARAMCD": "ACITM07",
      "PARAMN": 7.0,
      "AVAL": 1.0,
      "BASE": 1.0,
      "CHG": NaN,
      "PCHG": NaN,
      "ABLFL": "Y",
      "ANL01FL": "Y",
      "DTYPE": "",
      "AWRANGE": "<=1",
      "AWTARGET": 1.0,
      "AWTDIFF": 5.397605346934028e-79,
      "AWLO": NaN,
      "AWHI": 1.0,
      "AWU": "DAYS",
      "QSSEQ": 5007.0
    },
    {
      "STUDYID": "CDISCPILOT01",
      "SITEID": "701",
      "SITEGR1": "701",
      "USUBJID": "01-701-1015",
      "TRTSDT": 19725.0,
      "TRTEDT": 19906.0,
      "TRTP": "Placebo",
      "TRTPN": 5.397605346934028e-79,
      "AGE": 63.0,
      "AGEGR1": "<65",
      "AGEGR1N": 1.0,
      "RACE": "WHITE",
      "RACEN": 1.0,
      "SEX": "F",
      "ITTFL": "Y",
      "EFFFL": "Y",
      "COMP24FL": "Y",
      "AVISIT": "Week 8",
      "AVISITN": 8.0,
      "VISIT": "WEEK 8",
      "VISITNUM": 8.0,
      "ADY": 63.0,
      "ADT": 19787.0,
      "PARAM": "Orientation",
      "PARAMCD": "ACITM07",
      "PARAMN": 7.0,
      "AVAL": 5.397605346934028e-79,
      "BASE": 1.0,
      "CHG": -1.0,
      "PCHG": -100.0,
      "ABLFL": "",
      "ANL01FL": "Y",
      "DTYPE": "",
      "AWRANGE": "2-84",
      "AWTARGET": 56.0,
      "AWTDIFF": 7.0,
      "AWLO": 2.0,
      "AWHI": 84.0,
      "AWU": "DAYS",
      "QSSEQ": 5022.0
    },
    {
      "STUDYID": "CDISCPILOT01",
      "SITEID": "701",
      "SITEGR1": "701",
      "USUBJID": "01-701-1015",
      "TRTSDT": 19725.0,
      "TRTEDT": 19906.0,
      "TRTP": "Placebo",
      "TRTPN": 5.397605346934028e-79,
      "AGE": 63.0,
      "AGEGR1": "<65",
      "AGEGR1N": 1.0,
      "RACE": "WHITE",
      "RACEN": 1.0,
      "SEX": "F",
      "ITTFL": "Y",
      "EFFFL": "Y",
      "COMP24FL": "Y",
      "AVISIT": "Week 16",
      "AVISITN": 16.0,
      "VISIT": "WEEK 16",
      "VISITNUM": 10.0,
      "ADY": 126.0,
      "ADT": 19850.0,
      "PARAM": "Orientation",
      "PARAMCD": "ACITM07",
      "PARAMN": 7.0,
      "AVAL": 5.397605346934028e-79,
      "BASE": 1.0,
      "CHG": -1.0,
      "PCHG": -100.0,
      "ABLFL": "",
      "ANL01FL": "Y",
      "DTYPE": "",
      "AWRANGE": "85-140",
      "AWTARGET": 112.0,
      "AWTDIFF": 14.0,
      "AWLO": 85.0,
      "AWHI": 140.0,
      "AWU": "DAYS",
      "QSSEQ": 5037.0
    },
    {
      "STUDYID": "CDISCPILOT01",
      "SITEID": "701",
      "SITEGR1": "701",
      "USUBJID": "01-701-1015",
      "TRTSDT": 19725.0,
      "TRTEDT": 19906.0,
      "TRTP": "Placebo",
      "TRTPN": 5.397605346934028e-79,
      "AGE": 63.0,
      "AGEGR1": "<65",
      "AGEGR1N": 1.0,
      "RACE": "WHITE",
      "RACEN": 1.0,
      "SEX": "F",
      "ITTFL": "Y",
      "EFFFL": "Y",
      "COMP24FL": "Y",
      "AVISIT": "Week 24",
      "AVISITN": 24.0,
      "VISIT": "WEEK 24",
      "VISITNUM": 12.0,
      "ADY": 168.0,
      "ADT": 19892.0,
      "PARAM": "Orientation",
      "PARAMCD": "ACITM07",
      "PARAMN": 7.0,
      "AVAL": 1.0,
      "BASE": 1.0,
      "CHG": 5.397605346934028e-79,
      "PCHG": 5.397605346934028e-79,
      "ABLFL": "",
      "ANL01FL": "Y",
      "DTYPE": "",
      "AWRANGE": ">140",
      "AWTARGET": 168.0,
      "AWTDIFF": 5.397605346934028e-79,
      "AWLO": 141.0,
      "AWHI": NaN,
      "AWU": "DAYS",
      "QSSEQ": 5052.0
    },
    {
      "STUDYID": "CDISCPILOT01",
      "SITEID": "701",
      "SITEGR1": "701",
      "USUBJID": "01-701-1015",
      "TRTSDT": 19725.0,
      "TRTEDT": 19906.0,
      "TRTP": "Placebo",
      "TRTPN": 5.397605346934028e-79,
      "AGE": 63.0,
      "AGEGR1": "<65",
      "AGEGR1N": 1.0,
      "RACE": "WHITE",
      "RACEN": 1.0,
      "SEX": "F",
      "ITTFL": "Y",
      "EFFFL": "Y",
      "COMP24FL": "Y",
      "AVISIT": "Baseline",
      "AVISITN": 5.397605346934028e-79,
      "VISIT": "BASELINE",
      "VISITNUM": 3.0,
      "ADY": 1.0,
      "ADT": 19725.0,
      "PARAM": "Word Recognition",
      "PARAMCD": "ACITM08",
      "PARAMN": 8.0,
      "AVAL": 1.0,
      "BASE": 1.0,
      "CHG": NaN,
      "PCHG": NaN,
      "ABLFL": "Y",
      "ANL01FL": "Y",
      "DTYPE": "",
      "AWRANGE": "<=1",
      "AWTARGET": 1.0,
      "AWTDIFF": 5.397605346934028e-79,
      "AWLO": NaN,
      "AWHI": 1.0,
      "AWU": "DAYS",
      "QSSEQ": 5008.0
    },
    {
      "STUDYID": "CDISCPILOT01",
      "SITEID": "701",
      "SITEGR1": "701",
      "USUBJID": "01-701-1015",
      "TRTSDT": 19725.0,
      "TRTEDT": 19906.0,
      "TRTP": "Placebo",
      "TRTPN": 5.397605346934028e-79,
      "AGE": 63.0,
      "AGEGR1": "<65",
      "AGEGR1N": 1.0,
      "RACE": "WHITE",
      "RACEN": 1.0,
      "SEX": "F",
      "ITTFL": "Y",
      "EFFFL": "Y",
      "COMP24FL": "Y",
      "AVISIT": "Week 8",
      "AVISITN": 8.0,
      "VISIT": "WEEK 8",
      "VISITNUM": 8.0,
      "ADY": 63.0,
      "ADT": 19787.0,
      "PARAM": "Word Recognition",
      "PARAMCD": "ACITM08",
      "PARAMN": 8.0,
      "AVAL": 5.397605346934028e-79,
      "BASE": 1.0,
      "CHG": -1.0,
      "PCHG": -100.0,
      "ABLFL": "",
      "ANL01FL": "Y",
      "DTYPE": "",
      "AWRANGE": "2-84",
      "AWTARGET": 56.0,
      "AWTDIFF": 7.0,
      "AWLO": 2.0,
      "AWHI": 84.0,
      "AWU": "DAYS",
      "QSSEQ": 5023.0
    },
    {
      "STUDYID": "CDISCPILOT01",
      "SITEID": "701",
      "SITEGR1": "701",
      "USUBJID": "01-701-1015",
      "TRTSDT": 19725.0,
      "TRTEDT": 19906.0,
      "TRTP": "Placebo",
      "TRTPN": 5.397605346934028e-79,
      "AGE": 63.0,
      "AGEGR1": "<65",
      "AGEGR1N": 1.0,
      "RACE": "WHITE",
      "RACEN": 1.0,
      "SEX": "F",
      "ITTFL": "Y",
      "EFFFL": "Y",
      "COMP24FL": "Y",
      "AVISIT": "Week 16",
      "AVISITN": 16.0,
      "VISIT": "WEEK 16",
      "VISITNUM": 10.0,
      "ADY": 126.0,
      "ADT": 19850.0,
      "PARAM": "Word Recognition",
      "PARAMCD": "ACITM08",
      "PARAMN": 8.0,
      "AVAL": 1.0,
      "BASE": 1.0,
      "CHG": 5.397605346934028e-79,
      "PCHG": 5.397605346934028e-79,
      "ABLFL": "",
      "ANL01FL": "Y",
      "DTYPE": "",
      "AWRANGE": "85-140",
      "AWTARGET": 112.0,
      "AWTDIFF": 14.0,
      "AWLO": 85.0,
      "AWHI": 140.0,
      "AWU": "DAYS",
      "QSSEQ": 5038.0
    },
    {
      "STUDYID": "CDISCPILOT01",
      "SITEID": "701",
      "SITEGR1": "701",
      "USUBJID": "01-701-1015",
      "TRTSDT": 19725.0,
      "TRTEDT": 19906.0,
      "TRTP": "Placebo",
      "TRTPN": 5.397605346934028e-79,
      "AGE": 63.0,
      "AGEGR1": "<65",
      "AGEGR1N": 1.0,
      "RACE": "WHITE",
      "RACEN": 1.0,
      "SEX": "F",
      "ITTFL": "Y",
      "EFFFL": "Y",
      "COMP24FL": "Y",
      "AVISIT": "Week 24",
      "AVISITN": 24.0,
      "VISIT": "WEEK 24",
      "VISITNUM": 12.0,
      "ADY": 168.0,
      "ADT": 19892.0,
      "PARAM": "Word Recognition",
      "PARAMCD": "ACITM08",
      "PARAMN": 8.0,
      "AVAL": 1.0,
      "BASE": 1.0,
      "CHG": 5.397605346934028e-79,
      "PCHG": 5.397605346934028e-79,
      "ABLFL": "",
      "ANL01FL": "Y",
      "DTYPE": "",
      "AWRANGE": ">140",
      "AWTARGET": 168.0,
      "AWTDIFF": 5.397605346934028e-79,
      "AWLO": 141.0,
      "AWHI": NaN,
      "AWU": "DAYS",
      "QSSEQ": 5053.0
    },
    {
      "STUDYID": "CDISCPILOT01",
      "SITEID": "701",
      "SITEGR1": "701",
      "USUBJID": "01-701-1015",
      "TRTSDT": 19725.0,
      "TRTEDT": 19906.0,
      "TRTP": "Placebo",
      "TRTPN": 5.397605346934028e-79,
      "AGE": 63.0,
      "AGEGR1": "<65",
      "AGEGR1N": 1.0,
      "RACE": "WHITE",
      "RACEN": 1.0,
      "SEX": "F",
      "ITTFL": "Y",
      "EFFFL": "Y",
      "COMP24FL": "Y",
      "AVISIT": "Baseline",
      "AVISITN": 5.397605346934028e-79,
      "VISIT": "BASELINE",
      "VISITNUM": 3.0,
      "ADY": 1.0,
      "ADT": 19725.0,
      "PARAM": "Attention/Visual Search Task",
      "PARAMCD": "ACITM09",
      "PARAMN": 9.0,
      "AVAL": 23.0,
      "BASE": 23.0,
      "CHG": NaN,
      "PCHG": NaN,
      "ABLFL": "Y",
      "ANL01FL": "Y",
      "DTYPE": "",
      "AWRANGE": "<=1",
      "AWTARGET": 1.0,
      "AWTDIFF": 5.397605346934028e-79,
      "AWLO": NaN,
      "AWHI": 1.0,
      "AWU": "DAYS",
      "QSSEQ": 5009.0
    },
    {
      "STUDYID": "CDISCPILOT01",
      "SITEID": "701",
      "SITEGR1": "701",
      "USUBJID": "01-701-1015",
      "TRTSDT": 19725.0,
      "TRTEDT": 19906.0,
      "TRTP": "Placebo",
      "TRTPN": 5.397605346934028e-79,
      "AGE": 63.0,
      "AGEGR1": "<65",
      "AGEGR1N": 1.0,
      "RACE": "WHITE",
      "RACEN": 1.0,
      "SEX": "F",
      "ITTFL": "Y",
      "EFFFL": "Y",
      "COMP24FL": "Y",
      "AVISIT": "Week 8",
      "AVISITN": 8.0,
      "VISIT": "WEEK 8",
      "VISITNUM": 8.0,
      "ADY": 63.0,
      "ADT": 19787.0,
      "PARAM": "Attention/Visual Search Task",
      "PARAMCD": "ACITM09",
      "PARAMN": 9.0,
      "AVAL": 27.0,
      "BASE": 23.0,
      "CHG": 4.0,
      "PCHG": 17.391304347826086,
      "ABLFL": "",
      "ANL01FL": "Y",
      "DTYPE": "",
      "AWRANGE": "2-84",
      "AWTARGET": 56.0,
      "AWTDIFF": 7.0,
      "AWLO": 2.0,
      "AWHI": 84.0,
      "AWU": "DAYS",
      "QSSEQ": 5024.0
    },
    {
      "STUDYID": "CDISCPILOT01",
      "SITEID": "701",
      "SITEGR1": "701",
      "USUBJID": "01-701-1015",
      "TRTSDT": 19725.0,
      "TRTEDT": 19906.0,
      "TRTP": "Placebo",
      "TRTPN": 5.397605346934028e-79,
      "AGE": 63.0,
      "AGEGR1": "<65",
      "AGEGR1N": 1.0,
      "RACE": "WHITE",
      "RACEN": 1.0,
      "SEX": "F",
      "ITTFL": "Y",
      "EFFFL": "Y",
      "COMP24FL": "Y",
      "AVISIT": "Week 16",
      "AVISITN": 16.0,
      "VISIT": "WEEK 16",
      "VISITNUM": 10.0,
      "ADY": 126.0,
      "ADT": 19850.0,
      "PARAM": "Attention/Visual Search Task",
      "PARAMCD": "ACITM09",
      "PARAMN": 9.0,
      "AVAL": 34.0,
      "BASE": 23.0,
      "CHG": 11.0,
      "PCHG": 47.82608695652174,
      "ABLFL": "",
      "ANL01FL": "Y",
      "DTYPE": "",
      "AWRANGE": "85-140",
      "AWTARGET": 112.0,
      "AWTDIFF": 14.0,
      "AWLO": 85.0,
      "AWHI": 140.0,
      "AWU": "DAYS",
      "QSSEQ": 5039.0
    },
    {
      "STUDYID": "CDISCPILOT01",
      "SITEID": "701",
      "SITEGR1": "701",
      "USUBJID": "01-701-1015",
      "TRTSDT": 19725.0,
      "TRTEDT": 19906.0,
      "TRTP": "Placebo",
      "TRTPN": 5.397605346934028e-79,
      "AGE": 63.0,
      "AGEGR1": "<65",
      "AGEGR1N": 1.0,
      "RACE": "WHITE",
      "RACEN": 1.0,
      "SEX": "F",
      "ITTFL": "Y",
      "EFFFL": "Y",
      "COMP24FL": "Y",
      "AVISIT": "Week 24",
      "AVISITN": 24.0,
      "VISIT": "WEEK 24",
      "VISITNUM": 12.0,
      "ADY": 168.0,
      "ADT": 19892.0,
      "PARAM": "Attention/Visual Search Task",
      "PARAMCD": "ACITM09",
      "PARAMN": 9.0,
      "AVAL": 39.0,
      "BASE": 23.0,
      "CHG": 16.0,
      "PCHG": 69.56521739130434,
      "ABLFL": "",
      "ANL01FL": "Y",
      "DTYPE": "",
      "AWRANGE": ">140",
      "AWTARGET": 168.0,
      "AWTDIFF": 5.397605346934028e-79,
      "AWLO": 141.0,
      "AWHI": NaN,
      "AWU": "DAYS",
      "QSSEQ": 5054.0
    },
    {
      "STUDYID": "CDISCPILOT01",
      "SITEID": "701",
      "SITEGR1": "701",
      "USUBJID": "01-701-1015",
      "TRTSDT": 19725.0,
      "TRTEDT": 19906.0,
      "TRTP": "Placebo",
      "TRTPN": 5.397605346934028e-79,
      "AGE": 63.0,
      "AGEGR1": "<65",
      "AGEGR1N": 1.0,
      "RACE": "WHITE",
      "RACEN": 1.0,
      "SEX": "F",
      "ITTFL": "Y",
      "EFFFL": "Y",
      "COMP24FL": "Y",
      "AVISIT": "Baseline",
      "AVISITN": 5.397605346934028e-79,
      "VISIT": "BASELINE",
      "VISITNUM": 3.0,
      "ADY": 1.0,
      "ADT": 19725.0,
      "PARAM": "Maze Solution",
      "PARAMCD": "ACITM10",
      "PARAMN": 10.0,
      "AVAL": 3.0,
      "BASE": 3.0,
      "CHG": NaN,
      "PCHG": NaN,
      "ABLFL": "Y",
      "ANL01FL": "Y",
      "DTYPE": "",
      "AWRANGE": "<=1",
      "AWTARGET": 1.0,
      "AWTDIFF": 5.397605346934028e-79,
      "AWLO": NaN,
      "AWHI": 1.0,
      "AWU": "DAYS",
      "QSSEQ": 5010.0
    },
    {
      "STUDYID": "CDISCPILOT01",
      "SITEID": "701",
      "SITEGR1": "701",
      "USUBJID": "01-701-1015",
      "TRTSDT": 19725.0,
      "TRTEDT": 19906.0,
      "TRTP": "Placebo",
      "TRTPN": 5.397605346934028e-79,
      "AGE": 63.0,
      "AGEGR1": "<65",
      "AGEGR1N": 1.0,
      "RACE": "WHITE",
      "RACEN": 1.0,
      "SEX": "F",
      "ITTFL": "Y",
      "EFFFL": "Y",
      "COMP24FL": "Y",
      "AVISIT": "Week 8",
      "AVISITN": 8.0,
      "VISIT": "WEEK 8",
      "VISITNUM": 8.0,
      "ADY": 63.0,
      "ADT": 19787.0,
      "PARAM": "Maze Solution",
      "PARAMCD": "ACITM10",
      "PARAMN": 10.0,
      "AVAL": 4.0,
      "BASE": 3.0,
      "CHG": 1.0,
      "PCHG": 33.33333333333333,
      "ABLFL": "",
      "ANL01FL": "Y",
      "DTYPE": "",
      "AWRANGE": "2-84",
      "AWTARGET": 56.0,
      "AWTDIFF": 7.0,
      "AWLO": 2.0,
      "AWHI": 84.0,
      "AWU": "DAYS",
      "QSSEQ": 5025.0
    },
    {
      "STUDYID": "CDISCPILOT01",
      "SITEID": "701",
      "SITEGR1": "701",
      "USUBJID": "01-701-1015",
      "TRTSDT": 19725.0,
      "TRTEDT": 19906.0,
      "TRTP": "Placebo",
      "TRTPN": 5.397605346934028e-79,
      "AGE": 63.0,
      "AGEGR1": "<65",
      "AGEGR1N": 1.0,
      "RACE": "WHITE",
      "RACEN": 1.0,
      "SEX": "F",
      "ITTFL": "Y",
      "EFFFL": "Y",
      "COMP24FL": "Y",
      "AVISIT": "Week 16",
      "AVISITN": 16.0,
      "VISIT": "WEEK 16",
      "VISITNUM": 10.0,
      "ADY": 126.0,
      "ADT": 19850.0,
      "PARAM": "Maze Solution",
      "PARAMCD": "ACITM10",
      "PARAMN": 10.0,
      "AVAL": 4.0,
      "BASE": 3.0,
      "CHG": 1.0,
      "PCHG": 33.33333333333333,
      "ABLFL": "",
      "ANL01FL": "Y",
      "DTYPE": "",
      "AWRANGE": "85-140",
      "AWTARGET": 112.0,
      "AWTDIFF": 14.0,
      "AWLO": 85.0,
      "AWHI": 140.0,
      "AWU": "DAYS",
      "QSSEQ": 5040.0
    },
    {
      "STUDYID": "CDISCPILOT01",
      "SITEID": "701",
      "SITEGR1": "701",
      "USUBJID": "01-701-1015",
      "TRTSDT": 19725.0,
      "TRTEDT": 19906.0,
      "TRTP": "Placebo",
      "TRTPN": 5.397605346934028e-79,
      "AGE": 63.0,
      "AGEGR1": "<65",
      "AGEGR1N": 1.0,
      "RACE": "WHITE",
      "RACEN": 1.0,
      "SEX": "F",
      "ITTFL": "Y",
      "EFFFL": "Y",
      "COMP24FL": "Y",
      "AVISIT": "Week 24",
      "AVISITN": 24.0,
      "VISIT": "WEEK 24",
      "VISITNUM": 12.0,
      "ADY": 168.0,
      "ADT": 19892.0,
      "PARAM": "Maze Solution",
      "PARAMCD": "ACITM10",
      "PARAMN": 10.0,
      "AVAL": 3.0,
      "BASE": 3.0,
      "CHG": 5.397605346934028e-79,
      "PCHG": 5.397605346934028e-79,
      "ABLFL": "",
      "ANL01FL": "Y",
      "DTYPE": "",
      "AWRANGE": ">140",
      "AWTARGET": 168.0,
      "AWTDIFF": 5.397605346934028e-79,
      "AWLO": 141.0,
      "AWHI": NaN,
      "AWU": "DAYS",
      "QSSEQ": 5055.0
    },
    {
      "STUDYID": "CDISCPILOT01",
      "SITEID": "701",
      "SITEGR1": "701",
      "USUBJID": "01-701-1015",
      "TRTSDT": 19725.0,
      "TRTEDT": 19906.0,
      "TRTP": "Placebo",
      "TRTPN": 5.397605346934028e-79,
      "AGE": 63.0,
      "AGEGR1": "<65",
      "AGEGR1N": 1.0,
      "RACE": "WHITE",
      "RACEN": 1.0,
      "SEX": "F",
      "ITTFL": "Y",
      "EFFFL": "Y",
      "COMP24FL": "Y",
      "AVISIT": "Baseline",
      "AVISITN": 5.397605346934028e-79,
      "VISIT": "BASELINE",
      "VISITNUM": 3.0,
      "ADY": 1.0,
      "ADT": 19725.0,
      "PARAM": "Spoken Language Ability",
      "PARAMCD": "ACITM11",
      "PARAMN": 11.0,
      "AVAL": 1.0,
      "BASE": 1.0,
      "CHG": NaN,
      "PCHG": NaN,
      "ABLFL": "Y",
      "ANL01FL": "Y",
      "DTYPE": "",
      "AWRANGE": "<=1",
      "AWTARGET": 1.0,
      "AWTDIFF": 5.397605346934028e-79,
      "AWLO": NaN,
      "AWHI": 1.0,
      "AWU": "DAYS",
      "QSSEQ": 5011.0
    },
    {
      "STUDYID": "CDISCPILOT01",
      "SITEID": "701",
      "SITEGR1": "701",
      "USUBJID": "01-701-1015",
      "TRTSDT": 19725.0,
      "TRTEDT": 19906.0,
      "TRTP": "Placebo",
      "TRTPN": 5.397605346934028e-79,
      "AGE": 63.0,
      "AGEGR1": "<65",
      "AGEGR1N": 1.0,
      "RACE": "WHITE",
      "RACEN": 1.0,
      "SEX": "F",
      "ITTFL": "Y",
      "EFFFL": "Y",
      "COMP24FL": "Y",
      "AVISIT": "Week 8",
      "AVISITN": 8.0,
      "VISIT": "WEEK 8",
      "VISITNUM": 8.0,
      "ADY": 63.0,
      "ADT": 19787.0,
      "PARAM": "Spoken Language Ability",
      "PARAMCD": "ACITM11",
      "PARAMN": 11.0,
      "AVAL": 1.0,
      "BASE": 1.0,
      "CHG": 5.397605346934028e-79,
      "PCHG": 5.397605346934028e-79,
      "ABLFL": "",
      "ANL01FL": "Y",
      "DTYPE": "",
      "AWRANGE": "2-84",
      "AWTARGET": 56.0,
      "AWTDIFF": 7.0,
      "AWLO": 2.0,
      "AWHI": 84.0,
      "AWU": "DAYS",
      "QSSEQ": 5026.0
    },
    {
      "STUDYID": "CDISCPILOT01",
      "SITEID": "701",
      "SITEGR1": "701",
      "USUBJID": "01-701-1015",
      "TRTSDT": 19725.0,
      "TRTEDT": 19906.0,
      "TRTP": "Placebo",
      "TRTPN": 5.397605346934028e-79,
      "AGE": 63.0,
      "AGEGR1": "<65",
      "AGEGR1N": 1.0,
      "RACE": "WHITE",
      "RACEN": 1.0,
      "SEX": "F",
      "ITTFL": "Y",
      "EFFFL": "Y",
      "COMP24FL": "Y",
      "AVISIT": "Week 16",
      "AVISITN": 16.0,
      "VISIT": "WEEK 16",
      "VISITNUM": 10.0,
      "ADY": 126.0,
      "ADT": 19850.0,
      "PARAM": "Spoken Language Ability",
      "PARAMCD": "ACITM11",
      "PARAMN": 11.0,
      "AVAL": 1.0,
      "BASE": 1.0,
      "CHG": 5.397605346934028e-79,
      "PCHG": 5.397605346934028e-79,
      "ABLFL": "",
      "ANL01FL": "Y",
      "DTYPE": "",
      "AWRANGE": "85-140",
      "AWTARGET": 112.0,
      "AWTDIFF": 14.0,
      "AWLO": 85.0,
      "AWHI": 140.0,
      "AWU": "DAYS",
      "QSSEQ": 5041.0
    },
    {
      "STUDYID": "CDISCPILOT01",
      "SITEID": "701",
      "SITEGR1": "701",
      "USUBJID": "01-701-1015",
      "TRTSDT": 19725.0,
      "TRTEDT": 19906.0,
      "TRTP": "Placebo",
      "TRTPN": 5.397605346934028e-79,
      "AGE": 63.0,
      "AGEGR1": "<65",
      "AGEGR1N": 1.0,
      "RACE": "WHITE",
      "RACEN": 1.0,
      "SEX": "F",
      "ITTFL": "Y",
      "EFFFL": "Y",
      "COMP24FL": "Y",
      "AVISIT": "Week 24",
      "AVISITN": 24.0,
      "VISIT": "WEEK 24",
      "VISITNUM": 12.0,
      "ADY": 168.0,
      "ADT": 19892.0,
      "PARAM": "Spoken Language Ability",
      "PARAMCD": "ACITM11",
      "PARAMN": 11.0,
      "AVAL": 5.397605346934028e-79,
      "BASE": 1.0,
      "CHG": -1.0,
      "PCHG": -100.0,
      "ABLFL": "",
      "ANL01FL": "Y",
      "DTYPE": "",
      "AWRANGE": ">140",
      "AWTARGET": 168.0,
      "AWTDIFF": 5.397605346934028e-79,
      "AWLO": 141.0,
      "AWHI": NaN,
      "AWU": "DAYS",
      "QSSEQ": 5056.0
    },
    {
      "STUDYID": "CDISCPILOT01",
      "SITEID": "701",
      "SITEGR1": "701",
      "USUBJID": "01-701-1015",
      "TRTSDT": 19725.0,
      "TRTEDT": 19906.0,
      "TRTP": "Placebo",
      "TRTPN": 5.397605346934028e-79,
      "AGE": 63.0,
      "AGEGR1": "<65",
      "AGEGR1N": 1.0,
      "RACE": "WHITE",
      "RACEN": 1.0,
      "SEX": "F",
      "ITTFL": "Y",
      "EFFFL": "Y",
      "COMP24FL": "Y",
      "AVISIT": "Baseline",
      "AVISITN": 5.397605346934028e-79,
      "VISIT": "BASELINE",
      "VISITNUM": 3.0,
      "ADY": 1.0,
      "ADT": 19725.0,
      "PARAM": "Comprehension Of Spoken Language",
      "PARAMCD": "ACITM12",
      "PARAMN": 12.0,
      "AVAL": 1.0,
      "BASE": 1.0,
      "CHG": NaN,
      "PCHG": NaN,
      "ABLFL": "Y",
      "ANL01FL": "Y",
      "DTYPE": "",
      "AWRANGE": "<=1",
      "AWTARGET": 1.0,
      "AWTDIFF": 5.397605346934028e-79,
      "AWLO": NaN,
      "AWHI": 1.0,
      "AWU": "DAYS",
      "QSSEQ": 5012.0
    },
    {
      "STUDYID": "CDISCPILOT01",
      "SITEID": "701",
      "SITEGR1": "701",
      "USUBJID": "01-701-1015",
      "TRTSDT": 19725.0,
      "TRTEDT": 19906.0,
      "TRTP": "Placebo",
      "TRTPN": 5.397605346934028e-79,
      "AGE": 63.0,
      "AGEGR1": "<65",
      "AGEGR1N": 1.0,
      "RACE": "WHITE",
      "RACEN": 1.0,
      "SEX": "F",
      "ITTFL": "Y",
      "EFFFL": "Y",
      "COMP24FL": "Y",
      "AVISIT": "Week 8",
      "AVISITN": 8.0,
      "VISIT": "WEEK 8",
      "VISITNUM": 8.0,
      "ADY": 63.0,
      "ADT": 19787.0,
      "PARAM": "Comprehension Of Spoken Language",
      "PARAMCD": "ACITM12",
      "PARAMN": 12.0,
      "AVAL": 1.0,
      "BASE": 1.0,
      "CHG": 5.397605346934028e-79,
      "PCHG": 5.397605346934028e-79,
      "ABLFL": "",
      "ANL01FL": "Y",
      "DTYPE": "",
      "AWRANGE": "2-84",
      "AWTARGET": 56.0,
      "AWTDIFF": 7.0,
      "AWLO": 2.0,
      "AWHI": 84.0,
      "AWU": "DAYS",
      "QSSEQ": 5027.0
    },
    {
      "STUDYID": "CDISCPILOT01",
      "SITEID": "701",
      "SITEGR1": "701",
      "USUBJID": "01-701-1015",
      "TRTSDT": 19725.0,
      "TRTEDT": 19906.0,
      "TRTP": "Placebo",
      "TRTPN": 5.397605346934028e-79,
      "AGE": 63.0,
      "AGEGR1": "<65",
      "AGEGR1N": 1.0,
      "RACE": "WHITE",
      "RACEN": 1.0,
      "SEX": "F",
      "ITTFL": "Y",
      "EFFFL": "Y",
      "COMP24FL": "Y",
      "AVISIT": "Week 16",
      "AVISITN": 16.0,
      "VISIT": "WEEK 16",
      "VISITNUM": 10.0,
      "ADY": 126.0,
      "ADT": 19850.0,
      "PARAM": "Comprehension Of Spoken Language",
      "PARAMCD": "ACITM12",
      "PARAMN": 12.0,
      "AVAL": 1.0,
      "BASE": 1.0,
      "CHG": 5.397605346934028e-79,
      "PCHG": 5.397605346934028e-79,
      "ABLFL": "",
      "ANL01FL": "Y",
      "DTYPE": "",
      "AWRANGE": "85-140",
      "AWTARGET": 112.0,
      "AWTDIFF": 14.0,
      "AWLO": 85.0,
      "AWHI": 140.0,
      "AWU": "DAYS",
      "QSSEQ": 5042.0
    },
    {
      "STUDYID": "CDISCPILOT01",
      "SITEID": "701",
      "SITEGR1": "701",
      "USUBJID": "01-701-1015",
      "TRTSDT": 19725.0,
      "TRTEDT": 19906.0,
      "TRTP": "Placebo",
      "TRTPN": 5.397605346934028e-79,
      "AGE": 63.0,
      "AGEGR1": "<65",
      "AGEGR1N": 1.0,
      "RACE": "WHITE",
      "RACEN": 1.0,
      "SEX": "F",
      "ITTFL": "Y",
      "EFFFL": "Y",
      "COMP24FL": "Y",
      "AVISIT": "Week 24",
      "AVISITN": 24.0,
      "VISIT": "WEEK 24",
      "VISITNUM": 12.0,
      "ADY": 168.0,
      "ADT": 19892.0,
      "PARAM": "Comprehension Of Spoken Language",
      "PARAMCD": "ACITM12",
      "PARAMN": 12.0,
      "AVAL": 5.397605346934028e-79,
      "BASE": 1.0,
      "CHG": -1.0,
      "PCHG": -100.0,
      "ABLFL": "",
      "ANL01FL": "Y",
      "DTYPE": "",
      "AWRANGE": ">140",
      "AWTARGET": 168.0,
      "AWTDIFF": 5.397605346934028e-79,
      "AWLO": 141.0,
      "AWHI": NaN,
      "AWU": "DAYS",
      "QSSEQ": 5057.0
    },
    {
      "STUDYID": "CDISCPILOT01",
      "SITEID": "701",
      "SITEGR1": "701",
      "USUBJID": "01-701-1015",
      "TRTSDT": 19725.0,
      "TRTEDT": 19906.0,
      "TRTP": "Placebo",
      "TRTPN": 5.397605346934028e-79,
      "AGE": 63.0,
      "AGEGR1": "<65",
      "AGEGR1N": 1.0,
      "RACE": "WHITE",
      "RACEN": 1.0,
      "SEX": "F",
      "ITTFL": "Y",
      "EFFFL": "Y",
      "COMP24FL": "Y",
      "AVISIT": "Baseline",
      "AVISITN": 5.397605346934028e-79,
      "VISIT": "BASELINE",
      "VISITNUM": 3.0,
      "ADY": 1.0,
      "ADT": 19725.0,
      "PARAM": "Word Finding Difficulty In Spontaneous S",
      "PARAMCD": "ACITM13",
      "PARAMN": 13.0,
      "AVAL": 1.0,
      "BASE": 1.0,
      "CHG": NaN,
      "PCHG": NaN,
      "ABLFL": "Y",
      "ANL01FL": "Y",
      "DTYPE": "",
      "AWRANGE": "<=1",
      "AWTARGET": 1.0,
      "AWTDIFF": 5.397605346934028e-79,
      "AWLO": NaN,
      "AWHI": 1.0,
      "AWU": "DAYS",
      "QSSEQ": 5013.0
    },
    {
      "STUDYID": "CDISCPILOT01",
      "SITEID": "701",
      "SITEGR1": "701",
      "USUBJID": "01-701-1015",
      "TRTSDT": 19725.0,
      "TRTEDT": 19906.0,
      "TRTP": "Placebo",
      "TRTPN": 5.397605346934028e-79,
      "AGE": 63.0,
      "AGEGR1": "<65",
      "AGEGR1N": 1.0,
      "RACE": "WHITE",
      "RACEN": 1.0,
      "SEX": "F",
      "ITTFL": "Y",
      "EFFFL": "Y",
      "COMP24FL": "Y",
      "AVISIT": "Week 8",
      "AVISITN": 8.0,
      "VISIT": "WEEK 8",
      "VISITNUM": 8.0,
      "ADY": 63.0,
      "ADT": 19787.0,
      "PARAM": "Word Finding Difficulty In Spontaneous S",
      "PARAMCD": "ACITM13",
      "PARAMN": 13.0,
      "AVAL": 1.0,
      "BASE": 1.0,
      "CHG": 5.397605346934028e-79,
      "PCHG": 5.397605346934028e-79,
      "ABLFL": "",
      "ANL01FL": "Y",
      "DTYPE": "",
      "AWRANGE": "2-84",
      "AWTARGET": 56.0,
      "AWTDIFF": 7.0,
      "AWLO": 2.0,
      "AWHI": 84.0,
      "AWU": "DAYS",
      "QSSEQ": 5028.0
    },
    {
      "STUDYID": "CDISCPILOT01",
      "SITEID": "701",
      "SITEGR1": "701",
      "USUBJID": "01-701-1015",
      "TRTSDT": 19725.0,
      "TRTEDT": 19906.0,
      "TRTP": "Placebo",
      "TRTPN": 5.397605346934028e-79,
      "AGE": 63.0,
      "AGEGR1": "<65",
      "AGEGR1N": 1.0,
      "RACE": "WHITE",
      "RACEN": 1.0,
      "SEX": "F",
      "ITTFL": "Y",
      "EFFFL": "Y",
      "COMP24FL": "Y",
      "AVISIT": "Week 16",
      "AVISITN": 16.0,
      "VISIT": "WEEK 16",
      "VISITNUM": 10.0,
      "ADY": 126.0,
      "ADT": 19850.0,
      "PARAM": "Word Finding Difficulty In Spontaneous S",
      "PARAMCD": "ACITM13",
      "PARAMN": 13.0,
      "AVAL": 1.0,
      "BASE": 1.0,
      "CHG": 5.397605346934028e-79,
      "PCHG": 5.397605346934028e-79,
      "ABLFL": "",
      "ANL01FL": "Y",
      "DTYPE": "",
      "AWRANGE": "85-140",
      "AWTARGET": 112.0,
      "AWTDIFF": 14.0,
      "AWLO": 85.0,
      "AWHI": 140.0,
      "AWU": "DAYS",
      "QSSEQ": 5043.0
    },
    {
      "STUDYID": "CDISCPILOT01",
      "SITEID": "701",
      "SITEGR1": "701",
      "USUBJID": "01-701-1015",
      "TRTSDT": 19725.0,
      "TRTEDT": 19906.0,
      "TRTP": "Placebo",
      "TRTPN": 5.397605346934028e-79,
      "AGE": 63.0,
      "AGEGR1": "<65",
      "AGEGR1N": 1.0,
      "RACE": "WHITE",
      "RACEN": 1.0,
      "SEX": "F",
      "ITTFL": "Y",
      "EFFFL": "Y",
      "COMP24FL": "Y",
      "AVISIT": "Week 24",
      "AVISITN": 24.0,
      "VISIT": "WEEK 24",
      "VISITNUM": 12.0,
      "ADY": 168.0,
      "ADT": 19892.0,
      "PARAM": "Word Finding Difficulty In Spontaneous S",
      "PARAMCD": "ACITM13",
      "PARAMN": 13.0,
      "AVAL": 5.397605346934028e-79,
      "BASE": 1.0,
      "CHG": -1.0,
      "PCHG": -100.0,
      "ABLFL": "",
      "ANL01FL": "Y",
      "DTYPE": "",
      "AWRANGE": ">140",
      "AWTARGET": 168.0,
      "AWTDIFF": 5.397605346934028e-79,
      "AWLO": 141.0,
      "AWHI": NaN,
      "AWU": "DAYS",
      "QSSEQ": 5058.0
    },
    {
      "STUDYID": "CDISCPILOT01",
      "SITEID": "701",
      "SITEGR1": "701",
      "USUBJID": "01-701-1015",
      "TRTSDT": 19725.0,
      "TRTEDT": 19906.0,
      "TRTP": "Placebo",
      "TRTPN": 5.397605346934028e-79,
      "AGE": 63.0,
      "AGEGR1": "<65",
      "AGEGR1N": 1.0,
      "RACE": "WHITE",
      "RACEN": 1.0,
      "SEX": "F",
      "ITTFL": "Y",
      "EFFFL": "Y",
      "COMP24FL": "Y",
      "AVISIT": "Baseline",
      "AVISITN": 5.397605346934028e-79,
      "VISIT": "BASELINE",
      "VISITNUM": 3.0,
      "ADY": 1.0,
      "ADT": 19725.0,
      "PARAM": "Recall Of Test Instructions",
      "PARAMCD": "ACITM14",
      "PARAMN": 14.0,
      "AVAL": 1.0,
      "BASE": 1.0,
      "CHG": NaN,
      "PCHG": NaN,
      "ABLFL": "Y",
      "ANL01FL": "Y",
      "DTYPE": "",
      "AWRANGE": "<=1",
      "AWTARGET": 1.0,
      "AWTDIFF": 5.397605346934028e-79,
      "AWLO": NaN,
      "AWHI": 1.0,
      "AWU": "DAYS",
      "QSSEQ": 5014.0
    },
    {
      "STUDYID": "CDISCPILOT01",
      "SITEID": "701",
      "SITEGR1": "701",
      "USUBJID": "01-701-1015",
      "TRTSDT": 19725.0,
      "TRTEDT": 19906.0,
      "TRTP": "Placebo",
      "TRTPN": 5.397605346934028e-79,
      "AGE": 63.0,
      "AGEGR1": "<65",
      "AGEGR1N": 1.0,
      "RACE": "WHITE",
      "RACEN": 1.0,
      "SEX": "F",
      "ITTFL": "Y",
      "EFFFL": "Y",
      "COMP24FL": "Y",
      "AVISIT": "Week 8",
      "AVISITN": 8.0,
      "VISIT": "WEEK 8",
      "VISITNUM": 8.0,
      "ADY": 63.0,
      "ADT": 19787.0,
      "PARAM": "Recall Of Test Instructions",
      "PARAMCD": "ACITM14",
      "PARAMN": 14.0,
      "AVAL": 1.0,
      "BASE": 1.0,
      "CHG": 5.397605346934028e-79,
      "PCHG": 5.397605346934028e-79,
      "ABLFL": "",
      "ANL01FL": "Y",
      "DTYPE": "",
      "AWRANGE": "2-84",
      "AWTARGET": 56.0,
      "AWTDIFF": 7.0,
      "AWLO": 2.0,
      "AWHI": 84.0,
      "AWU": "DAYS",
      "QSSEQ": 5029.0
    },
    {
      "STUDYID": "CDISCPILOT01",
      "SITEID": "701",
      "SITEGR1": "701",
      "USUBJID": "01-701-1015",
      "TRTSDT": 19725.0,
      "TRTEDT": 19906.0,
      "TRTP": "Placebo",
      "TRTPN": 5.397605346934028e-79,
      "AGE": 63.0,
      "AGEGR1": "<65",
      "AGEGR1N": 1.0,
      "RACE": "WHITE",
      "RACEN": 1.0,
      "SEX": "F",
      "ITTFL": "Y",
      "EFFFL": "Y",
      "COMP24FL": "Y",
      "AVISIT": "Week 16",
      "AVISITN": 16.0,
      "VISIT": "WEEK 16",
      "VISITNUM": 10.0,
      "ADY": 126.0,
      "ADT": 19850.0,
      "PARAM": "Recall Of Test Instructions",
      "PARAMCD": "ACITM14",
      "PARAMN": 14.0,
      "AVAL": 1.0,
      "BASE": 1.0,
      "CHG": 5.397605346934028e-79,
      "PCHG": 5.397605346934028e-79,
      "ABLFL": "",
      "ANL01FL": "Y",
      "DTYPE": "",
      "AWRANGE": "85-140",
      "AWTARGET": 112.0,
      "AWTDIFF": 14.0,
      "AWLO": 85.0,
      "AWHI": 140.0,
      "AWU": "DAYS",
      "QSSEQ": 5044.0
    },
    {
      "STUDYID": "CDISCPILOT01",
      "SITEID": "701",
      "SITEGR1": "701",
      "USUBJID": "01-701-1015",
      "TRTSDT": 19725.0,
      "TRTEDT": 19906.0,
      "TRTP": "Placebo",
      "TRTPN": 5.397605346934028e-79,
      "AGE": 63.0,
      "AGEGR1": "<65",
      "AGEGR1N": 1.0,
      "RACE": "WHITE",
      "RACEN": 1.0,
      "SEX": "F",
      "ITTFL": "Y",
      "EFFFL": "Y",
      "COMP24FL": "Y",
      "AVISIT": "Week 24",
      "AVISITN": 24.0,
      "VISIT": "WEEK 24",
      "VISITNUM": 12.0,
      "ADY": 168.0,
      "ADT": 19892.0,
      "PARAM": "Recall Of Test Instructions",
      "PARAMCD": "ACITM14",
      "PARAMN": 14.0,
      "AVAL": 5.397605346934028e-79,
      "BASE": 1.0,
      "CHG": -1.0,
      "PCHG": -100.0,
      "ABLFL": "",
      "ANL01FL": "Y",
      "DTYPE": "",
      "AWRANGE": ">140",
      "AWTARGET": 168.0,
      "AWTDIFF": 5.397605346934028e-79,
      "AWLO": 141.0,
      "AWHI": NaN,
      "AWU": "DAYS",
      "QSSEQ": 5059.0
    },
    {
      "STUDYID": "CDISCPILOT01",
      "SITEID": "701",
      "SITEGR1": "701",
      "USUBJID": "01-701-1015",
      "TRTSDT": 19725.0,
      "TRTEDT": 19906.0,
      "TRTP": "Placebo",
      "TRTPN": 5.397605346934028e-79,
      "AGE": 63.0,
      "AGEGR1": "<65",
      "AGEGR1N": 1.0,
      "RACE": "WHITE",
      "RACEN": 1.0,
      "SEX": "F",
      "ITTFL": "Y",
      "EFFFL": "Y",
      "COMP24FL": "Y",
      "AVISIT": "Baseline",
      "AVISITN": 5.397605346934028e-79,
      "VISIT": "BASELINE",
      "VISITNUM": 3.0,
      "ADY": 1.0,
      "ADT": 19725.0,
      "PARAM": "Adas-Cog(11) Subscore",
      "PARAMCD": "ACTOT",
      "PARAMN": 15.0,
      "AVAL": 13.0,
      "BASE": 13.0,
      "CHG": NaN,
      "PCHG": NaN,
      "ABLFL": "Y",
      "ANL01FL": "Y",
      "DTYPE": "",
      "AWRANGE": "<=1",
      "AWTARGET": 1.0,
      "AWTDIFF": 5.397605346934028e-79,
      "AWLO": NaN,
      "AWHI": 1.0,
      "AWU": "DAYS",
      "QSSEQ": 5015.0
    },
    {
      "STUDYID": "CDISCPILOT01",
      "SITEID": "701",
      "SITEGR1": "701",
      "USUBJID": "01-701-1015",
      "TRTSDT": 19725.0,
      "TRTEDT": 19906.0,
      "TRTP": "Placebo",
      "TRTPN": 5.397605346934028e-79,
      "AGE": 63.0,
      "AGEGR1": "<65",
      "AGEGR1N": 1.0,
      "RACE": "WHITE",
      "RACEN": 1.0,
      "SEX": "F",
      "ITTFL": "Y",
      "EFFFL": "Y",
      "COMP24FL": "Y",
      "AVISIT": "Week 8",
      "AVISITN": 8.0,
      "VISIT": "WEEK 8",
      "VISITNUM": 8.0,
      "ADY": 63.0,
      "ADT": 19787.0,
      "PARAM": "Adas-Cog(11) Subscore",
      "PARAMCD": "ACTOT",
      "PARAMN": 15.0,
      "AVAL": 8.0,
      "BASE": 13.0,
      "CHG": -5.0,
      "PCHG": -38.46153846153847,
      "ABLFL": "",
      "ANL01FL": "Y",
      "DTYPE": "",
      "AWRANGE": "2-84",
      "AWTARGET": 56.0,
      "AWTDIFF": 7.0,
      "AWLO": 2.0,
      "AWHI": 84.0,
      "AWU": "DAYS",
      "QSSEQ": 5030.0
    },
    {
      "STUDYID": "CDISCPILOT01",
      "SITEID": "701",
      "SITEGR1": "701",
      "USUBJID": "01-701-1015",
      "TRTSDT": 19725.0,
      "TRTEDT": 19906.0,
      "TRTP": "Placebo",
      "TRTPN": 5.397605346934028e-79,
      "AGE": 63.0,
      "AGEGR1": "<65",
      "AGEGR1N": 1.0,
      "RACE": "WHITE",
      "RACEN": 1.0,
      "SEX": "F",
      "ITTFL": "Y",
      "EFFFL": "Y",
      "COMP24FL": "Y",
      "AVISIT": "Week 16",
      "AVISITN": 16.0,
      "VISIT": "WEEK 16",
      "VISITNUM": 10.0,
      "ADY": 126.0,
      "ADT": 19850.0,
      "PARAM": "Adas-Cog(11) Subscore",
      "PARAMCD": "ACTOT",
      "PARAMN": 15.0,
      "AVAL": 11.0,
      "BASE": 13.0,
      "CHG": -2.0,
      "PCHG": -15.384615384615385,
      "ABLFL": "",
      "ANL01FL": "Y",
      "DTYPE": "",
      "AWRANGE": "85-140",
      "AWTARGET": 112.0,
      "AWTDIFF": 14.0,
      "AWLO": 85.0,
      "AWHI": 140.0,
      "AWU": "DAYS",
      "QSSEQ": 5045.0
    },
    {
      "STUDYID": "CDISCPILOT01",
      "SITEID": "701",
      "SITEGR1": "701",
      "USUBJID": "01-701-1015",
      "TRTSDT": 19725.0,
      "TRTEDT": 19906.0,
      "TRTP": "Placebo",
      "TRTPN": 5.397605346934028e-79,
      "AGE": 63.0,
      "AGEGR1": "<65",
      "AGEGR1N": 1.0,
      "RACE": "WHITE",
      "RACEN": 1.0,
      "SEX": "F",
      "ITTFL": "Y",
      "EFFFL": "Y",
      "COMP24FL": "Y",
      "AVISIT": "Week 24",
      "AVISITN": 24.0,
      "VISIT": "WEEK 24",
      "VISITNUM": 12.0,
      "ADY": 168.0,
      "ADT": 19892.0,
      "PARAM": "Adas-Cog(11) Subscore",
      "PARAMCD": "ACTOT",
      "PARAMN": 15.0,
      "AVAL": 8.0,
      "BASE": 13.0,
      "CHG": -5.0,
      "PCHG": -38.46153846153847,
      "ABLFL": "",
      "ANL01FL": "Y",
      "DTYPE": "",
      "AWRANGE": ">140",
      "AWTARGET": 168.0,
      "AWTDIFF": 5.397605346934028e-79,
      "AWLO": 141.0,
      "AWHI": NaN,
      "AWU": "DAYS",
      "QSSEQ": 5060.0
    },
    {
      "STUDYID": "CDISCPILOT01",
      "SITEID": "701",
      "SITEGR1": "701",
      "USUBJID": "01-701-1023",
      "TRTSDT": 19210.0,
      "TRTEDT": 19237.0,
      "TRTP": "Placebo",
      "TRTPN": 5.397605346934028e-79,
      "AGE": 64.0,
      "AGEGR1": "<65",
      "AGEGR1N": 1.0,
      "RACE": "WHITE",
      "RACEN": 1.0,
      "SEX": "M",
      "ITTFL": "Y",
      "EFFFL": "Y",
      "COMP24FL": "N",
      "AVISIT": "Baseline",
      "AVISITN": 5.397605346934028e-79,
      "VISIT": "BASELINE",
      "VISITNUM": 3.0,
      "ADY": 1.0,
      "ADT": 19210.0,
      "PARAM": "Word Recall Task",
      "PARAMCD": "ACITM01",
      "PARAMN": 1.0,
      "AVAL": 4.0,
      "BASE": 4.0,
      "CHG": NaN,
      "PCHG": NaN,
      "ABLFL": "Y",
      "ANL01FL": "Y",
      "DTYPE": "",
      "AWRANGE": "<=1",
      "AWTARGET": 1.0,
      "AWTDIFF": 5.397605346934028e-79,
      "AWLO": NaN,
      "AWHI": 1.0,
      "AWU": "DAYS",
      "QSSEQ": 5001.0
    },
    {
      "STUDYID": "CDISCPILOT01",
      "SITEID": "701",
      "SITEGR1": "701",
      "USUBJID": "01-701-1023",
      "TRTSDT": 19210.0,
      "TRTEDT": 19237.0,
      "TRTP": "Placebo",
      "TRTPN": 5.397605346934028e-79,
      "AGE": 64.0,
      "AGEGR1": "<65",
      "AGEGR1N": 1.0,
      "RACE": "WHITE",
      "RACEN": 1.0,
      "SEX": "M",
      "ITTFL": "Y",
      "EFFFL": "Y",
      "COMP24FL": "N",
      "AVISIT": "Week 8",
      "AVISITN": 8.0,
      "VISIT": "WEEK 4",
      "VISITNUM": 5.0,
      "ADY": 29.0,
      "ADT": 19238.0,
      "PARAM": "Word Recall Task",
      "PARAMCD": "ACITM01",
      "PARAMN": 1.0,
      "AVAL": 2.0,
      "BASE": 4.0,
      "CHG": -2.0,
      "PCHG": -50.0,
      "ABLFL": "",
      "ANL01FL": "Y",
      "DTYPE": "",
      "AWRANGE": "2-84",
      "AWTARGET": 56.0,
      "AWTDIFF": 27.0,
      "AWLO": 2.0,
      "AWHI": 84.0,
      "AWU": "DAYS",
      "QSSEQ": 5016.0
    },
    {
      "STUDYID": "CDISCPILOT01",
      "SITEID": "701",
      "SITEGR1": "701",
      "USUBJID": "01-701-1023",
      "TRTSDT": 19210.0,
      "TRTEDT": 19237.0,
      "TRTP": "Placebo",
      "TRTPN": 5.397605346934028e-79,
      "AGE": 64.0,
      "AGEGR1": "<65",
      "AGEGR1N": 1.0,
      "RACE": "WHITE",
      "RACEN": 1.0,
      "SEX": "M",
      "ITTFL": "Y",
      "EFFFL": "Y",
      "COMP24FL": "N",
      "AVISIT": "Week 24",
      "AVISITN": 24.0,
      "VISIT": "RETRIEVAL",
      "VISITNUM": 201.0,
      "ADY": 198.0,
      "ADT": 19407.0,
      "PARAM": "Word Recall Task",
      "PARAMCD": "ACITM01",
      "PARAMN": 1.0,
      "AVAL": 3.0,
      "BASE": 4.0,
      "CHG": -1.0,
      "PCHG": -25.0,
      "ABLFL": "",
      "ANL01FL": "Y",
      "DTYPE": "",
      "AWRANGE": ">140",
      "AWTARGET": 168.0,
      "AWTDIFF": 30.0,
      "AWLO": 141.0,
      "AWHI": NaN,
      "AWU": "DAYS",
      "QSSEQ": 5031.0
    },
    {
      "STUDYID": "CDISCPILOT01",
      "SITEID": "701",
      "SITEGR1": "701",
      "USUBJID": "01-701-1023",
      "TRTSDT": 19210.0,
      "TRTEDT": 19237.0,
      "TRTP": "Placebo",
      "TRTPN": 5.397605346934028e-79,
      "AGE": 64.0,
      "AGEGR1": "<65",
      "AGEGR1N": 1.0,
      "RACE": "WHITE",
      "RACEN": 1.0,
      "SEX": "M",
      "ITTFL": "Y",
      "EFFFL": "Y",
      "COMP24FL": "N",
      "AVISIT": "Baseline",
      "AVISITN": 5.397605346934028e-79,
      "VISIT": "BASELINE",
      "VISITNUM": 3.0,
      "ADY": 1.0,
      "ADT": 19210.0,
      "PARAM": "Naming Objects And Fingers (Refer To 5 C",
      "PARAMCD": "ACITM02",
      "PARAMN": 2.0,
      "AVAL": 2.0,
      "BASE": 2.0,
      "CHG": NaN,
      "PCHG": NaN,
      "ABLFL": "Y",
      "ANL01FL": "Y",
      "DTYPE": "",
      "AWRANGE": "<=1",
      "AWTARGET": 1.0,
      "AWTDIFF": 5.397605346934028e-79,
      "AWLO": NaN,
      "AWHI": 1.0,
      "AWU": "DAYS",
      "QSSEQ": 5002.0
    },
    {
      "STUDYID": "CDISCPILOT01",
      "SITEID": "701",
      "SITEGR1": "701",
      "USUBJID": "01-701-1023",
      "TRTSDT": 19210.0,
      "TRTEDT": 19237.0,
      "TRTP": "Placebo",
      "TRTPN": 5.397605346934028e-79,
      "AGE": 64.0,
      "AGEGR1": "<65",
      "AGEGR1N": 1.0,
      "RACE": "WHITE",
      "RACEN": 1.0,
      "SEX": "M",
      "ITTFL": "Y",
      "EFFFL": "Y",
      "COMP24FL": "N",
      "AVISIT": "Week 8",
      "AVISITN": 8.0,
      "VISIT": "WEEK 4",
      "VISITNUM": 5.0,
      "ADY": 29.0,
      "ADT": 19238.0,
      "PARAM": "Naming Objects And Fingers (Refer To 5 C",
      "PARAMCD": "ACITM02",
      "PARAMN": 2.0,
      "AVAL": 2.0,
      "BASE": 2.0,
      "CHG": 5.397605346934028e-79,
      "PCHG": 5.397605346934028e-79,
      "ABLFL": "",
      "ANL01FL": "Y",
      "DTYPE": "",
      "AWRANGE": "2-84",
      "AWTARGET": 56.0,
      "AWTDIFF": 27.0,
      "AWLO": 2.0,
      "AWHI": 84.0,
      "AWU": "DAYS",
      "QSSEQ": 5017.0
    },
    {
      "STUDYID": "CDISCPILOT01",
      "SITEID": "701",
      "SITEGR1": "701",
      "USUBJID": "01-701-1023",
      "TRTSDT": 19210.0,
      "TRTEDT": 19237.0,
      "TRTP": "Placebo",
      "TRTPN": 5.397605346934028e-79,
      "AGE": 64.0,
      "AGEGR1": "<65",
      "AGEGR1N": 1.0,
      "RACE": "WHITE",
      "RACEN": 1.0,
      "SEX": "M",
      "ITTFL": "Y",
      "EFFFL": "Y",
      "COMP24FL": "N",
      "AVISIT": "Week 24",
      "AVISITN": 24.0,
      "VISIT": "RETRIEVAL",
      "VISITNUM": 201.0,
      "ADY": 198.0,
      "ADT": 19407.0,
      "PARAM": "Naming Objects And Fingers (Refer To 5 C",
      "PARAMCD": "ACITM02",
      "PARAMN": 2.0,
      "AVAL": 5.397605346934028e-79,
      "BASE": 2.0,
      "CHG": -2.0,
      "PCHG": -100.0,
      "ABLFL": "",
      "ANL01FL": "Y",
      "DTYPE": "",
      "AWRANGE": ">140",
      "AWTARGET": 168.0,
      "AWTDIFF": 30.0,
      "AWLO": 141.0,
      "AWHI": NaN,
      "AWU": "DAYS",
      "QSSEQ": 5032.0
    },
    {
      "STUDYID": "CDISCPILOT01",
      "SITEID": "701",
      "SITEGR1": "701",
      "USUBJID": "01-701-1023",
      "TRTSDT": 19210.0,
      "TRTEDT": 19237.0,
      "TRTP": "Placebo",
      "TRTPN": 5.397605346934028e-79,
      "AGE": 64.0,
      "AGEGR1": "<65",
      "AGEGR1N": 1.0,
      "RACE": "WHITE",
      "RACEN": 1.0,
      "SEX": "M",
      "ITTFL": "Y",
      "EFFFL": "Y",
      "COMP24FL": "N",
      "AVISIT": "Baseline",
      "AVISITN": 5.397605346934028e-79,
      "VISIT": "BASELINE",
      "VISITNUM": 3.0,
      "ADY": 1.0,
      "ADT": 19210.0,
      "PARAM": "Delayed Word Recall",
      "PARAMCD": "ACITM03",
      "PARAMN": 3.0,
      "AVAL": 2.0,
      "BASE": 2.0,
      "CHG": NaN,
      "PCHG": NaN,
      "ABLFL": "Y",
      "ANL01FL": "Y",
      "DTYPE": "",
      "AWRANGE": "<=1",
      "AWTARGET": 1.0,
      "AWTDIFF": 5.397605346934028e-79,
      "AWLO": NaN,
      "AWHI": 1.0,
      "AWU": "DAYS",
      "QSSEQ": 5003.0
    },
    {
      "STUDYID": "CDISCPILOT01",
      "SITEID": "701",
      "SITEGR1": "701",
      "USUBJID": "01-701-1023",
      "TRTSDT": 19210.0,
      "TRTEDT": 19237.0,
      "TRTP": "Placebo",
      "TRTPN": 5.397605346934028e-79,
      "AGE": 64.0,
      "AGEGR1": "<65",
      "AGEGR1N": 1.0,
      "RACE": "WHITE",
      "RACEN": 1.0,
      "SEX": "M",
      "ITTFL": "Y",
      "EFFFL": "Y",
      "COMP24FL": "N",
      "AVISIT": "Week 8",
      "AVISITN": 8.0,
      "VISIT": "WEEK 4",
      "VISITNUM": 5.0,
      "ADY": 29.0,
      "ADT": 19238.0,
      "PARAM": "Delayed Word Recall",
      "PARAMCD": "ACITM03",
      "PARAMN": 3.0,
      "AVAL": 2.0,
      "BASE": 2.0,
      "CHG": 5.397605346934028e-79,
      "PCHG": 5.397605346934028e-79,
      "ABLFL": "",
      "ANL01FL": "Y",
      "DTYPE": "",
      "AWRANGE": "2-84",
      "AWTARGET": 56.0,
      "AWTDIFF": 27.0,
      "AWLO": 2.0,
      "AWHI": 84.0,
      "AWU": "DAYS",
      "QSSEQ": 5018.0
    },
    {
      "STUDYID": "CDISCPILOT01",
      "SITEID": "701",
      "SITEGR1": "701",
      "USUBJID": "01-701-1023",
      "TRTSDT": 19210.0,
      "TRTEDT": 19237.0,
      "TRTP": "Placebo",
      "TRTPN": 5.397605346934028e-79,
      "AGE": 64.0,
      "AGEGR1": "<65",
      "AGEGR1N": 1.0,
      "RACE": "WHITE",
      "RACEN": 1.0,
      "SEX": "M",
      "ITTFL": "Y",
      "EFFFL": "Y",
      "COMP24FL": "N",
      "AVISIT": "Week 24",
      "AVISITN": 24.0,
      "VISIT": "RETRIEVAL",
      "VISITNUM": 201.0,
      "ADY": 198.0,
      "ADT": 19407.0,
      "PARAM": "Delayed Word Recall",
      "PARAMCD": "ACITM03",
      "PARAMN": 3.0,
      "AVAL": 3.0,
      "BASE": 2.0,
      "CHG": 1.0,
      "PCHG": 50.0,
      "ABLFL": "",
      "ANL01FL": "Y",
      "DTYPE": "",
      "AWRANGE": ">140",
      "AWTARGET": 168.0,
      "AWTDIFF": 30.0,
      "AWLO": 141.0,
      "AWHI": NaN,
      "AWU": "DAYS",
      "QSSEQ": 5033.0
    },
    {
      "STUDYID": "CDISCPILOT01",
      "SITEID": "701",
      "SITEGR1": "701",
      "USUBJID": "01-701-1023",
      "TRTSDT": 19210.0,
      "TRTEDT": 19237.0,
      "TRTP": "Placebo",
      "TRTPN": 5.397605346934028e-79,
      "AGE": 64.0,
      "AGEGR1": "<65",
      "AGEGR1N": 1.0,
      "RACE": "WHITE",
      "RACEN": 1.0,
      "SEX": "M",
      "ITTFL": "Y",
      "EFFFL": "Y",
      "COMP24FL": "N",
      "AVISIT": "Baseline",
      "AVISITN": 5.397605346934028e-79,
      "VISIT": "BASELINE",
      "VISITNUM": 3.0,
      "ADY": 1.0,
      "ADT": 19210.0,
      "PARAM": "Commands",
      "PARAMCD": "ACITM04",
      "PARAMN": 4.0,
      "AVAL": 5.397605346934028e-79,
      "BASE": 5.397605346934028e-79,
      "CHG": NaN,
      "PCHG": NaN,
      "ABLFL": "Y",
      "ANL01FL": "Y",
      "DTYPE": "",
      "AWRANGE": "<=1",
      "AWTARGET": 1.0,
      "AWTDIFF": 5.397605346934028e-79,
      "AWLO": NaN,
      "AWHI": 1.0,
      "AWU": "DAYS",
      "QSSEQ": 5004.0
    },
    {
      "STUDYID": "CDISCPILOT01",
      "SITEID": "701",
      "SITEGR1": "701",
      "USUBJID": "01-701-1023",
      "TRTSDT": 19210.0,
      "TRTEDT": 19237.0,
      "TRTP": "Placebo",
      "TRTPN": 5.397605346934028e-79,
      "AGE": 64.0,
      "AGEGR1": "<65",
      "AGEGR1N": 1.0,
      "RACE": "WHITE",
      "RACEN": 1.0,
      "SEX": "M",
      "ITTFL": "Y",
      "EFFFL": "Y",
      "COMP24FL": "N",
      "AVISIT": "Week 8",
      "AVISITN": 8.0,
      "VISIT": "WEEK 4",
      "VISITNUM": 5.0,
      "ADY": 29.0,
      "ADT": 19238.0,
      "PARAM": "Commands",
      "PARAMCD": "ACITM04",
      "PARAMN": 4.0,
      "AVAL": 5.397605346934028e-79,
      "BASE": 5.397605346934028e-79,
      "CHG": 5.397605346934028e-79,
      "PCHG": NaN,
      "ABLFL": "",
      "ANL01FL": "Y",
      "DTYPE": "",
      "AWRANGE": "2-84",
      "AWTARGET": 56.0,
      "AWTDIFF": 27.0,
      "AWLO": 2.0,
      "AWHI": 84.0,
      "AWU": "DAYS",
      "QSSEQ": 5019.0
    },
    {
      "STUDYID": "CDISCPILOT01",
      "SITEID": "701",
      "SITEGR1": "701",
      "USUBJID": "01-701-1023",
      "TRTSDT": 19210.0,
      "TRTEDT": 19237.0,
      "TRTP": "Placebo",
      "TRTPN": 5.397605346934028e-79,
      "AGE": 64.0,
      "AGEGR1": "<65",
      "AGEGR1N": 1.0,
      "RACE": "WHITE",
      "RACEN": 1.0,
      "SEX": "M",
      "ITTFL": "Y",
      "EFFFL": "Y",
      "COMP24FL": "N",
      "AVISIT": "Week 24",
      "AVISITN": 24.0,
      "VISIT": "RETRIEVAL",
      "VISITNUM": 201.0,
      "ADY": 198.0,
      "ADT": 19407.0,
      "PARAM": "Commands",
      "PARAMCD": "ACITM04",
      "PARAMN": 4.0,
      "AVAL": 5.397605346934028e-79,
      "BASE": 5.397605346934028e-79,
      "CHG": 5.397605346934028e-79,
      "PCHG": NaN,
      "ABLFL": "",
      "ANL01FL": "Y",
      "DTYPE": "",
      "AWRANGE": ">140",
      "AWTARGET": 168.0,
      "AWTDIFF": 30.0,
      "AWLO": 141.0,
      "AWHI": NaN,
      "AWU": "DAYS",
      "QSSEQ": 5034.0
    },
    {
      "STUDYID": "CDISCPILOT01",
      "SITEID": "701",
      "SITEGR1": "701",
      "USUBJID": "01-701-1023",
      "TRTSDT": 19210.0,
      "TRTEDT": 19237.0,
      "TRTP": "Placebo",
      "TRTPN": 5.397605346934028e-79,
      "AGE": 64.0,
      "AGEGR1": "<65",
      "AGEGR1N": 1.0,
      "RACE": "WHITE",
      "RACEN": 1.0,
      "SEX": "M",
      "ITTFL": "Y",
      "EFFFL": "Y",
      "COMP24FL": "N",
      "AVISIT": "Baseline",
      "AVISITN": 5.397605346934028e-79,
      "VISIT": "BASELINE",
      "VISITNUM": 3.0,
      "ADY": 1.0,
      "ADT": 19210.0,
      "PARAM": "Constructional Praxis",
      "PARAMCD": "ACITM05",
      "PARAMN": 5.0,
      "AVAL": 3.0,
      "BASE": 3.0,
      "CHG": NaN,
      "PCHG": NaN,
      "ABLFL": "Y",
      "ANL01FL": "Y",
      "DTYPE": "",
      "AWRANGE": "<=1",
      "AWTARGET": 1.0,
      "AWTDIFF": 5.397605346934028e-79,
      "AWLO": NaN,
      "AWHI": 1.0,
      "AWU": "DAYS",
      "QSSEQ": 5005.0
    },
    {
      "STUDYID": "CDISCPILOT01",
      "SITEID": "701",
      "SITEGR1": "701",
      "USUBJID": "01-701-1023",
      "TRTSDT": 19210.0,
      "TRTEDT": 19237.0,
      "TRTP": "Placebo",
      "TRTPN": 5.397605346934028e-79,
      "AGE": 64.0,
      "AGEGR1": "<65",
      "AGEGR1N": 1.0,
      "RACE": "WHITE",
      "RACEN": 1.0,
      "SEX": "M",
      "ITTFL": "Y",
      "EFFFL": "Y",
      "COMP24FL": "N",
      "AVISIT": "Week 8",
      "AVISITN": 8.0,
      "VISIT": "WEEK 4",
      "VISITNUM": 5.0,
      "ADY": 29.0,
      "ADT": 19238.0,
      "PARAM": "Constructional Praxis",
      "PARAMCD": "ACITM05",
      "PARAMN": 5.0,
      "AVAL": 2.0,
      "BASE": 3.0,
      "CHG": -1.0,
      "PCHG": -33.33333333333333,
      "ABLFL": "",
      "ANL01FL": "Y",
      "DTYPE": "",
      "AWRANGE": "2-84",
      "AWTARGET": 56.0,
      "AWTDIFF": 27.0,
      "AWLO": 2.0,
      "AWHI": 84.0,
      "AWU": "DAYS",
      "QSSEQ": 5020.0
    },
    {
      "STUDYID": "CDISCPILOT01",
      "SITEID": "701",
      "SITEGR1": "701",
      "USUBJID": "01-701-1023",
      "TRTSDT": 19210.0,
      "TRTEDT": 19237.0,
      "TRTP": "Placebo",
      "TRTPN": 5.397605346934028e-79,
      "AGE": 64.0,
      "AGEGR1": "<65",
      "AGEGR1N": 1.0,
      "RACE": "WHITE",
      "RACEN": 1.0,
      "SEX": "M",
      "ITTFL": "Y",
      "EFFFL": "Y",
      "COMP24FL": "N",
      "AVISIT": "Week 24",
      "AVISITN": 24.0,
      "VISIT": "RETRIEVAL",
      "VISITNUM": 201.0,
      "ADY": 198.0,
      "ADT": 19407.0,
      "PARAM": "Constructional Praxis",
      "PARAMCD": "ACITM05",
      "PARAMN": 5.0,
      "AVAL": 4.0,
      "BASE": 3.0,
      "CHG": 1.0,
      "PCHG": 33.33333333333333,
      "ABLFL": "",
      "ANL01FL": "Y",
      "DTYPE": "",
      "AWRANGE": ">140",
      "AWTARGET": 168.0,
      "AWTDIFF": 30.0,
      "AWLO": 141.0,
      "AWHI": NaN,
      "AWU": "DAYS",
      "QSSEQ": 5035.0
    },
    {
      "STUDYID": "CDISCPILOT01",
      "SITEID": "701",
      "SITEGR1": "701",
      "USUBJID": "01-701-1023",
      "TRTSDT": 19210.0,
      "TRTEDT": 19237.0,
      "TRTP": "Placebo",
      "TRTPN": 5.397605346934028e-79,
      "AGE": 64.0,
      "AGEGR1": "<65",
      "AGEGR1N": 1.0,
      "RACE": "WHITE",
      "RACEN": 1.0,
      "SEX": "M",
      "ITTFL": "Y",
      "EFFFL": "Y",
      "COMP24FL": "N",
      "AVISIT": "Baseline",
      "AVISITN": 5.397605346934028e-79,
      "VISIT": "BASELINE",
      "VISITNUM": 3.0,
      "ADY": 1.0,
      "ADT": 19210.0,
      "PARAM": "Ideational Praxis",
      "PARAMCD": "ACITM06",
      "PARAMN": 6.0,
      "AVAL": 5.397605346934028e-79,
      "BASE": 5.397605346934028e-79,
      "CHG": NaN,
      "PCHG": NaN,
      "ABLFL": "Y",
      "ANL01FL": "Y",
      "DTYPE": "",
      "AWRANGE": "<=1",
      "AWTARGET": 1.0,
      "AWTDIFF": 5.397605346934028e-79,
      "AWLO": NaN,
      "AWHI": 1.0,
      "AWU": "DAYS",
      "QSSEQ": 5006.0
    },
    {
      "STUDYID": "CDISCPILOT01",
      "SITEID": "701",
      "SITEGR1": "701",
      "USUBJID": "01-701-1023",
      "TRTSDT": 19210.0,
      "TRTEDT": 19237.0,
      "TRTP": "Placebo",
      "TRTPN": 5.397605346934028e-79,
      "AGE": 64.0,
      "AGEGR1": "<65",
      "AGEGR1N": 1.0,
      "RACE": "WHITE",
      "RACEN": 1.0,
      "SEX": "M",
      "ITTFL": "Y",
      "EFFFL": "Y",
      "COMP24FL": "N",
      "AVISIT": "Week 8",
      "AVISITN": 8.0,
      "VISIT": "WEEK 4",
      "VISITNUM": 5.0,
      "ADY": 29.0,
      "ADT": 19238.0,
      "PARAM": "Ideational Praxis",
      "PARAMCD": "ACITM06",
      "PARAMN": 6.0,
      "AVAL": 5.397605346934028e-79,
      "BASE": 5.397605346934028e-79,
      "CHG": 5.397605346934028e-79,
      "PCHG": NaN,
      "ABLFL": "",
      "ANL01FL": "Y",
      "DTYPE": "",
      "AWRANGE": "2-84",
      "AWTARGET": 56.0,
      "AWTDIFF": 27.0,
      "AWLO": 2.0,
      "AWHI": 84.0,
      "AWU": "DAYS",
      "QSSEQ": 5021.0
    },
    {
      "STUDYID": "CDISCPILOT01",
      "SITEID": "701",
      "SITEGR1": "701",
      "USUBJID": "01-701-1023",
      "TRTSDT": 19210.0,
      "TRTEDT": 19237.0,
      "TRTP": "Placebo",
      "TRTPN": 5.397605346934028e-79,
      "AGE": 64.0,
      "AGEGR1": "<65",
      "AGEGR1N": 1.0,
      "RACE": "WHITE",
      "RACEN": 1.0,
      "SEX": "M",
      "ITTFL": "Y",
      "EFFFL": "Y",
      "COMP24FL": "N",
      "AVISIT": "Week 24",
      "AVISITN": 24.0,
      "VISIT": "RETRIEVAL",
      "VISITNUM": 201.0,
      "ADY": 198.0,
      "ADT": 19407.0,
      "PARAM": "Ideational Praxis",
      "PARAMCD": "ACITM06",
      "PARAMN": 6.0,
      "AVAL": 5.397605346934028e-79,
      "BASE": 5.397605346934028e-79,
      "CHG": 5.397605346934028e-79,
      "PCHG": NaN,
      "ABLFL": "",
      "ANL01FL": "Y",
      "DTYPE": "",
      "AWRANGE": ">140",
      "AWTARGET": 168.0,
      "AWTDIFF": 30.0,
      "AWLO": 141.0,
      "AWHI": NaN,
      "AWU": "DAYS",
      "QSSEQ": 5036.0
    },
    {
      "STUDYID": "CDISCPILOT01",
      "SITEID": "701",
      "SITEGR1": "701",
      "USUBJID": "01-701-1023",
      "TRTSDT": 19210.0,
      "TRTEDT": 19237.0,
      "TRTP": "Placebo",
      "TRTPN": 5.397605346934028e-79,
      "AGE": 64.0,
      "AGEGR1": "<65",
      "AGEGR1N": 1.0,
      "RACE": "WHITE",
      "RACEN": 1.0,
      "SEX": "M",
      "ITTFL": "Y",
      "EFFFL": "Y",
      "COMP24FL": "N",
      "AVISIT": "Baseline",
      "AVISITN": 5.397605346934028e-79,
      "VISIT": "BASELINE",
      "VISITNUM": 3.0,
      "ADY": 1.0,
      "ADT": 19210.0,
      "PARAM": "Orientation",
      "PARAMCD": "ACITM07",
      "PARAMN": 7.0,
      "AVAL": 2.0,
      "BASE": 2.0,
      "CHG": NaN,
      "PCHG": NaN,
      "ABLFL": "Y",
      "ANL01FL": "Y",
      "DTYPE": "",
      "AWRANGE": "<=1",
      "AWTARGET": 1.0,
      "AWTDIFF": 5.397605346934028e-79,
      "AWLO": NaN,
      "AWHI": 1.0,
      "AWU": "DAYS",
      "QSSEQ": 5007.0
    },
    {
      "STUDYID": "CDISCPILOT01",
      "SITEID": "701",
      "SITEGR1": "701",
      "USUBJID": "01-701-1023",
      "TRTSDT": 19210.0,
      "TRTEDT": 19237.0,
      "TRTP": "Placebo",
      "TRTPN": 5.397605346934028e-79,
      "AGE": 64.0,
      "AGEGR1": "<65",
      "AGEGR1N": 1.0,
      "RACE": "WHITE",
      "RACEN": 1.0,
      "SEX": "M",
      "ITTFL": "Y",
      "EFFFL": "Y",
      "COMP24FL": "N",
      "AVISIT": "Week 8",
      "AVISITN": 8.0,
      "VISIT": "WEEK 4",
      "VISITNUM": 5.0,
      "ADY": 29.0,
      "ADT": 19238.0,
      "PARAM": "Orientation",
      "PARAMCD": "ACITM07",
      "PARAMN": 7.0,
      "AVAL": 1.0,
      "BASE": 2.0,
      "CHG": -1.0,
      "PCHG": -50.0,
      "ABLFL": "",
      "ANL01FL": "Y",
      "DTYPE": "",
      "AWRANGE": "2-84",
      "AWTARGET": 56.0,
      "AWTDIFF": 27.0,
      "AWLO": 2.0,
      "AWHI": 84.0,
      "AWU": "DAYS",
      "QSSEQ": 5022.0
    },
    {
      "STUDYID": "CDISCPILOT01",
      "SITEID": "701",
      "SITEGR1": "701",
      "USUBJID": "01-701-1023",
      "TRTSDT": 19210.0,
      "TRTEDT": 19237.0,
      "TRTP": "Placebo",
      "TRTPN": 5.397605346934028e-79,
      "AGE": 64.0,
      "AGEGR1": "<65",
      "AGEGR1N": 1.0,
      "RACE": "WHITE",
      "RACEN": 1.0,
      "SEX": "M",
      "ITTFL": "Y",
      "EFFFL": "Y",
      "COMP24FL": "N",
      "AVISIT": "Week 24",
      "AVISITN": 24.0,
      "VISIT": "RETRIEVAL",
      "VISITNUM": 201.0,
      "ADY": 198.0,
      "ADT": 19407.0,
      "PARAM": "Orientation",
      "PARAMCD": "ACITM07",
      "PARAMN": 7.0,
      "AVAL": 5.397605346934028e-79,
      "BASE": 2.0,
      "CHG": -2.0,
      "PCHG": -100.0,
      "ABLFL": "",
      "ANL01FL": "Y",
      "DTYPE": "",
      "AWRANGE": ">140",
      "AWTARGET": 168.0,
      "AWTDIFF": 30.0,
      "AWLO": 141.0,
      "AWHI": NaN,
      "AWU": "DAYS",
      "QSSEQ": 5037.0
    },
    {
      "STUDYID": "CDISCPILOT01",
      "SITEID": "701",
      "SITEGR1": "701",
      "USUBJID": "01-701-1023",
      "TRTSDT": 19210.0,
      "TRTEDT": 19237.0,
      "TRTP": "Placebo",
      "TRTPN": 5.397605346934028e-79,
      "AGE": 64.0,
      "AGEGR1": "<65",
      "AGEGR1N": 1.0,
      "RACE": "WHITE",
      "RACEN": 1.0,
      "SEX": "M",
      "ITTFL": "Y",
      "EFFFL": "Y",
      "COMP24FL": "N",
      "AVISIT": "Baseline",
      "AVISITN": 5.397605346934028e-79,
      "VISIT": "BASELINE",
      "VISITNUM": 3.0,
      "ADY": 1.0,
      "ADT": 19210.0,
      "PARAM": "Word Recognition",
      "PARAMCD": "ACITM08",
      "PARAMN": 8.0,
      "AVAL": 2.0,
      "BASE": 2.0,
      "CHG": NaN,
      "PCHG": NaN,
      "ABLFL": "Y",
      "ANL01FL": "Y",
      "DTYPE": "",
      "AWRANGE": "<=1",
      "AWTARGET": 1.0,
      "AWTDIFF": 5.397605346934028e-79,
      "AWLO": NaN,
      "AWHI": 1.0,
      "AWU": "DAYS",
      "QSSEQ": 5008.0
    },
    {
      "STUDYID": "CDISCPILOT01",
      "SITEID": "701",
      "SITEGR1": "701",
      "USUBJID": "01-701-1023",
      "TRTSDT": 19210.0,
      "TRTEDT": 19237.0,
      "TRTP": "Placebo",
      "TRTPN": 5.397605346934028e-79,
      "AGE": 64.0,
      "AGEGR1": "<65",
      "AGEGR1N": 1.0,
      "RACE": "WHITE",
      "RACEN": 1.0,
      "SEX": "M",
      "ITTFL": "Y",
      "EFFFL": "Y",
      "COMP24FL": "N",
      "AVISIT": "Week 8",
      "AVISITN": 8.0,
      "VISIT": "WEEK 4",
      "VISITNUM": 5.0,
      "ADY": 29.0,
      "ADT": 19238.0,
      "PARAM": "Word Recognition",
      "PARAMCD": "ACITM08",
      "PARAMN": 8.0,
      "AVAL": 1.0,
      "BASE": 2.0,
      "CHG": -1.0,
      "PCHG": -50.0,
      "ABLFL": "",
      "ANL01FL": "Y",
      "DTYPE": "",
      "AWRANGE": "2-84",
      "AWTARGET": 56.0,
      "AWTDIFF": 27.0,
      "AWLO": 2.0,
      "AWHI": 84.0,
      "AWU": "DAYS",
      "QSSEQ": 5023.0
    },
    {
      "STUDYID": "CDISCPILOT01",
      "SITEID": "701",
      "SITEGR1": "701",
      "USUBJID": "01-701-1023",
      "TRTSDT": 19210.0,
      "TRTEDT": 19237.0,
      "TRTP": "Placebo",
      "TRTPN": 5.397605346934028e-79,
      "AGE": 64.0,
      "AGEGR1": "<65",
      "AGEGR1N": 1.0,
      "RACE": "WHITE",
      "RACEN": 1.0,
      "SEX": "M",
      "ITTFL": "Y",
      "EFFFL": "Y",
      "COMP24FL": "N",
      "AVISIT": "Week 24",
      "AVISITN": 24.0,
      "VISIT": "RETRIEVAL",
      "VISITNUM": 201.0,
      "ADY": 198.0,
      "ADT": 19407.0,
      "PARAM": "Word Recognition",
      "PARAMCD": "ACITM08",
      "PARAMN": 8.0,
      "AVAL": 1.0,
      "BASE": 2.0,
      "CHG": -1.0,
      "PCHG": -50.0,
      "ABLFL": "",
      "ANL01FL": "Y",
      "DTYPE": "",
      "AWRANGE": ">140",
      "AWTARGET": 168.0,
      "AWTDIFF": 30.0,
      "AWLO": 141.0,
      "AWHI": NaN,
      "AWU": "DAYS",
      "QSSEQ": 5038.0
    },
    {
      "STUDYID": "CDISCPILOT01",
      "SITEID": "701",
      "SITEGR1": "701",
      "USUBJID": "01-701-1023",
      "TRTSDT": 19210.0,
      "TRTEDT": 19237.0,
      "TRTP": "Placebo",
      "TRTPN": 5.397605346934028e-79,
      "AGE": 64.0,
      "AGEGR1": "<65",
      "AGEGR1N": 1.0,
      "RACE": "WHITE",
      "RACEN": 1.0,
      "SEX": "M",
      "ITTFL": "Y",
      "EFFFL": "Y",
      "COMP24FL": "N",
      "AVISIT": "Baseline",
      "AVISITN": 5.397605346934028e-79,
      "VISIT": "BASELINE",
      "VISITNUM": 3.0,
      "ADY": 1.0,
      "ADT": 19210.0,
      "PARAM": "Attention/Visual Search Task",
      "PARAMCD": "ACITM09",
      "PARAMN": 9.0,
      "AVAL": 39.0,
      "BASE": 39.0,
      "CHG": NaN,
      "PCHG": NaN,
      "ABLFL": "Y",
      "ANL01FL": "Y",
      "DTYPE": "",
      "AWRANGE": "<=1",
      "AWTARGET": 1.0,
      "AWTDIFF": 5.397605346934028e-79,
      "AWLO": NaN,
      "AWHI": 1.0,
      "AWU": "DAYS",
      "QSSEQ": 5009.0
    },
    {
      "STUDYID": "CDISCPILOT01",
      "SITEID": "701",
      "SITEGR1": "701",
      "USUBJID": "01-701-1023",
      "TRTSDT": 19210.0,
      "TRTEDT": 19237.0,
      "TRTP": "Placebo",
      "TRTPN": 5.397605346934028e-79,
      "AGE": 64.0,
      "AGEGR1": "<65",
      "AGEGR1N": 1.0,
      "RACE": "WHITE",
      "RACEN": 1.0,
      "SEX": "M",
      "ITTFL": "Y",
      "EFFFL": "Y",
      "COMP24FL": "N",
      "AVISIT": "Week 8",
      "AVISITN": 8.0,
      "VISIT": "WEEK 4",
      "VISITNUM": 5.0,
      "ADY": 29.0,
      "ADT": 19238.0,
      "PARAM": "Attention/Visual Search Task",
      "PARAMCD": "ACITM09",
      "PARAMN": 9.0,
      "AVAL": 40.0,
      "BASE": 39.0,
      "CHG": 1.0,
      "PCHG": 2.564102564102564,
      "ABLFL": "",
      "ANL01FL": "Y",
      "DTYPE": "",
      "AWRANGE": "2-84",
      "AWTARGET": 56.0,
      "AWTDIFF": 27.0,
      "AWLO": 2.0,
      "AWHI": 84.0,
      "AWU": "DAYS",
      "QSSEQ": 5024.0
    },
    {
      "STUDYID": "CDISCPILOT01",
      "SITEID": "701",
      "SITEGR1": "701",
      "USUBJID": "01-701-1023",
      "TRTSDT": 19210.0,
      "TRTEDT": 19237.0,
      "TRTP": "Placebo",
      "TRTPN": 5.397605346934028e-79,
      "AGE": 64.0,
      "AGEGR1": "<65",
      "AGEGR1N": 1.0,
      "RACE": "WHITE",
      "RACEN": 1.0,
      "SEX": "M",
      "ITTFL": "Y",
      "EFFFL": "Y",
      "COMP24FL": "N",
      "AVISIT": "Week 24",
      "AVISITN": 24.0,
      "VISIT": "RETRIEVAL",
      "VISITNUM": 201.0,
      "ADY": 198.0,
      "ADT": 19407.0,
      "PARAM": "Attention/Visual Search Task",
      "PARAMCD": "ACITM09",
      "PARAMN": 9.0,
      "AVAL": 37.0,
      "BASE": 39.0,
      "CHG": -2.0,
      "PCHG": -5.128205128205128,
      "ABLFL": "",
      "ANL01FL": "Y",
      "DTYPE": "",
      "AWRANGE": ">140",
      "AWTARGET": 168.0,
      "AWTDIFF": 30.0,
      "AWLO": 141.0,
      "AWHI": NaN,
      "AWU": "DAYS",
      "QSSEQ": 5039.0
    },
    {
      "STUDYID": "CDISCPILOT01",
      "SITEID": "701",
      "SITEGR1": "701",
      "USUBJID": "01-701-1023",
      "TRTSDT": 19210.0,
      "TRTEDT": 19237.0,
      "TRTP": "Placebo",
      "TRTPN": 5.397605346934028e-79,
      "AGE": 64.0,
      "AGEGR1": "<65",
      "AGEGR1N": 1.0,
      "RACE": "WHITE",
      "RACEN": 1.0,
      "SEX": "M",
      "ITTFL": "Y",
      "EFFFL": "Y",
      "COMP24FL": "N",
      "AVISIT": "Baseline",
      "AVISITN": 5.397605346934028e-79,
      "VISIT": "BASELINE",
      "VISITNUM": 3.0,
      "ADY": 1.0,
      "ADT": 19210.0,
      "PARAM": "Maze Solution",
      "PARAMCD": "ACITM10",
      "PARAMN": 10.0,
      "AVAL": 5.0,
      "BASE": 5.0,
      "CHG": NaN,
      "PCHG": NaN,
      "ABLFL": "Y",
      "ANL01FL": "Y",
      "DTYPE": "",
      "AWRANGE": "<=1",
      "AWTARGET": 1.0,
      "AWTDIFF": 5.397605346934028e-79,
      "AWLO": NaN,
      "AWHI": 1.0,
      "AWU": "DAYS",
      "QSSEQ": 5010.0
    },
    {
      "STUDYID": "CDISCPILOT01",
      "SITEID": "701",
      "SITEGR1": "701",
      "USUBJID": "01-701-1023",
      "TRTSDT": 19210.0,
      "TRTEDT": 19237.0,
      "TRTP": "Placebo",
      "TRTPN": 5.397605346934028e-79,
      "AGE": 64.0,
      "AGEGR1": "<65",
      "AGEGR1N": 1.0,
      "RACE": "WHITE",
      "RACEN": 1.0,
      "SEX": "M",
      "ITTFL": "Y",
      "EFFFL": "Y",
      "COMP24FL": "N",
      "AVISIT": "Week 8",
      "AVISITN": 8.0,
      "VISIT": "WEEK 4",
      "VISITNUM": 5.0,
      "ADY": 29.0,
      "ADT": 19238.0,
      "PARAM": "Maze Solution",
      "PARAMCD": "ACITM10",
      "PARAMN": 10.0,
      "AVAL": 5.0,
      "BASE": 5.0,
      "CHG": 5.397605346934028e-79,
      "PCHG": 5.397605346934028e-79,
      "ABLFL": "",
      "ANL01FL": "Y",
      "DTYPE": "",
      "AWRANGE": "2-84",
      "AWTARGET": 56.0,
      "AWTDIFF": 27.0,
      "AWLO": 2.0,
      "AWHI": 84.0,
      "AWU": "DAYS",
      "QSSEQ": 5025.0
    },
    {
      "STUDYID": "CDISCPILOT01",
      "SITEID": "701",
      "SITEGR1": "701",
      "USUBJID": "01-701-1023",
      "TRTSDT": 19210.0,
      "TRTEDT": 19237.0,
      "TRTP": "Placebo",
      "TRTPN": 5.397605346934028e-79,
      "AGE": 64.0,
      "AGEGR1": "<65",
      "AGEGR1N": 1.0,
      "RACE": "WHITE",
      "RACEN": 1.0,
      "SEX": "M",
      "ITTFL": "Y",
      "EFFFL": "Y",
      "COMP24FL": "N",
      "AVISIT": "Week 24",
      "AVISITN": 24.0,
      "VISIT": "RETRIEVAL",
      "VISITNUM": 201.0,
      "ADY": 198.0,
      "ADT": 19407.0,
      "PARAM": "Maze Solution",
      "PARAMCD": "ACITM10",
      "PARAMN": 10.0,
      "AVAL": 3.0,
      "BASE": 5.0,
      "CHG": -2.0,
      "PCHG": -40.0,
      "ABLFL": "",
      "ANL01FL": "Y",
      "DTYPE": "",
      "AWRANGE": ">140",
      "AWTARGET": 168.0,
      "AWTDIFF": 30.0,
      "AWLO": 141.0,
      "AWHI": NaN,
      "AWU": "DAYS",
      "QSSEQ": 5040.0
    },
    {
      "STUDYID": "CDISCPILOT01",
      "SITEID": "701",
      "SITEGR1": "701",
      "USUBJID": "01-701-1023",
      "TRTSDT": 19210.0,
      "TRTEDT": 19237.0,
      "TRTP": "Placebo",
      "TRTPN": 5.397605346934028e-79,
      "AGE": 64.0,
      "AGEGR1": "<65",
      "AGEGR1N": 1.0,
      "RACE": "WHITE",
      "RACEN": 1.0,
      "SEX": "M",
      "ITTFL": "Y",
      "EFFFL": "Y",
      "COMP24FL": "N",
      "AVISIT": "Baseline",
      "AVISITN": 5.397605346934028e-79,
      "VISIT": "BASELINE",
      "VISITNUM": 3.0,
      "ADY": 1.0,
      "ADT": 19210.0,
      "PARAM": "Spoken Language Ability",
      "PARAMCD": "ACITM11",
      "PARAMN": 11.0,
      "AVAL": 5.397605346934028e-79,
      "BASE": 5.397605346934028e-79,
      "CHG": NaN,
      "PCHG": NaN,
      "ABLFL": "Y",
      "ANL01FL": "Y",
      "DTYPE": "",
      "AWRANGE": "<=1",
      "AWTARGET": 1.0,
      "AWTDIFF": 5.397605346934028e-79,
      "AWLO": NaN,
      "AWHI": 1.0,
      "AWU": "DAYS",
      "QSSEQ": 5011.0
    },
    {
      "STUDYID": "CDISCPILOT01",
      "SITEID": "701",
      "SITEGR1": "701",
      "USUBJID": "01-701-1023",
      "TRTSDT": 19210.0,
      "TRTEDT": 19237.0,
      "TRTP": "Placebo",
      "TRTPN": 5.397605346934028e-79,
      "AGE": 64.0,
      "AGEGR1": "<65",
      "AGEGR1N": 1.0,
      "RACE": "WHITE",
      "RACEN": 1.0,
      "SEX": "M",
      "ITTFL": "Y",
      "EFFFL": "Y",
      "COMP24FL": "N",
      "AVISIT": "Week 8",
      "AVISITN": 8.0,
      "VISIT": "WEEK 4",
      "VISITNUM": 5.0,
      "ADY": 29.0,
      "ADT": 19238.0,
      "PARAM": "Spoken Language Ability",
      "PARAMCD": "ACITM11",
      "PARAMN": 11.0,
      "AVAL": 5.397605346934028e-79,
      "BASE": 5.397605346934028e-79,
      "CHG": 5.397605346934028e-79,
      "PCHG": NaN,
      "ABLFL": "",
      "ANL01FL": "Y",
      "DTYPE": "",
      "AWRANGE": "2-84",
      "AWTARGET": 56.0,
      "AWTDIFF": 27.0,
      "AWLO": 2.0,
      "AWHI": 84.0,
      "AWU": "DAYS",
      "QSSEQ": 5026.0
    },
    {
      "STUDYID": "CDISCPILOT01",
      "SITEID": "701",
      "SITEGR1": "701",
      "USUBJID": "01-701-1023",
      "TRTSDT": 19210.0,
      "TRTEDT": 19237.0,
      "TRTP": "Placebo",
      "TRTPN": 5.397605346934028e-79,
      "AGE": 64.0,
      "AGEGR1": "<65",
      "AGEGR1N": 1.0,
      "RACE": "WHITE",
      "RACEN": 1.0,
      "SEX": "M",
      "ITTFL": "Y",
      "EFFFL": "Y",
      "COMP24FL": "N",
      "AVISIT": "Week 24",
      "AVISITN": 24.0,
      "VISIT": "RETRIEVAL",
      "VISITNUM": 201.0,
      "ADY": 198.0,
      "ADT": 19407.0,
      "PARAM": "Spoken Language Ability",
      "PARAMCD": "ACITM11",
      "PARAMN": 11.0,
      "AVAL": 1.0,
      "BASE": 5.397605346934028e-79,
      "CHG": 1.0,
      "PCHG": NaN,
      "ABLFL": "",
      "ANL01FL": "Y",
      "DTYPE": "",
      "AWRANGE": ">140",
      "AWTARGET": 168.0,
      "AWTDIFF": 30.0,
      "AWLO": 141.0,
      "AWHI": NaN,
      "AWU": "DAYS",
      "QSSEQ": 5041.0
    },
    {
      "STUDYID": "CDISCPILOT01",
      "SITEID": "701",
      "SITEGR1": "701",
      "USUBJID": "01-701-1023",
      "TRTSDT": 19210.0,
      "TRTEDT": 19237.0,
      "TRTP": "Placebo",
      "TRTPN": 5.397605346934028e-79,
      "AGE": 64.0,
      "AGEGR1": "<65",
      "AGEGR1N": 1.0,
      "RACE": "WHITE",
      "RACEN": 1.0,
      "SEX": "M",
      "ITTFL": "Y",
      "EFFFL": "Y",
      "COMP24FL": "N",
      "AVISIT": "Baseline",
      "AVISITN": 5.397605346934028e-79,
      "VISIT": "BASELINE",
      "VISITNUM": 3.0,
      "ADY": 1.0,
      "ADT": 19210.0,
      "PARAM": "Comprehension Of Spoken Language",
      "PARAMCD": "ACITM12",
      "PARAMN": 12.0,
      "AVAL": 5.397605346934028e-79,
      "BASE": 5.397605346934028e-79,
      "CHG": NaN,
      "PCHG": NaN,
      "ABLFL": "Y",
      "ANL01FL": "Y",
      "DTYPE": "",
      "AWRANGE": "<=1",
      "AWTARGET": 1.0,
      "AWTDIFF": 5.397605346934028e-79,
      "AWLO": NaN,
      "AWHI": 1.0,
      "AWU": "DAYS",
      "QSSEQ": 5012.0
    },
    {
      "STUDYID": "CDISCPILOT01",
      "SITEID": "701",
      "SITEGR1": "701",
      "USUBJID": "01-701-1023",
      "TRTSDT": 19210.0,
      "TRTEDT": 19237.0,
      "TRTP": "Placebo",
      "TRTPN": 5.397605346934028e-79,
      "AGE": 64.0,
      "AGEGR1": "<65",
      "AGEGR1N": 1.0,
      "RACE": "WHITE",
      "RACEN": 1.0,
      "SEX": "M",
      "ITTFL": "Y",
      "EFFFL": "Y",
      "COMP24FL": "N",
      "AVISIT": "Week 8",
      "AVISITN": 8.0,
      "VISIT": "WEEK 4",
      "VISITNUM": 5.0,
      "ADY": 29.0,
      "ADT": 19238.0,
      "PARAM": "Comprehension Of Spoken Language",
      "PARAMCD": "ACITM12",
      "PARAMN": 12.0,
      "AVAL": 5.397605346934028e-79,
      "BASE": 5.397605346934028e-79,
      "CHG": 5.397605346934028e-79,
      "PCHG": NaN,
      "ABLFL": "",
      "ANL01FL": "Y",
      "DTYPE": "",
      "AWRANGE": "2-84",
      "AWTARGET": 56.0,
      "AWTDIFF": 27.0,
      "AWLO": 2.0,
      "AWHI": 84.0,
      "AWU": "DAYS",
      "QSSEQ": 5027.0
    },
    {
      "STUDYID": "CDISCPILOT01",
      "SITEID": "701",
      "SITEGR1": "701",
      "USUBJID": "01-701-1023",
      "TRTSDT": 19210.0,
      "TRTEDT": 19237.0,
      "TRTP": "Placebo",
      "TRTPN": 5.397605346934028e-79,
      "AGE": 64.0,
      "AGEGR1": "<65",
      "AGEGR1N": 1.0,
      "RACE": "WHITE",
      "RACEN": 1.0,
      "SEX": "M",
      "ITTFL": "Y",
      "EFFFL": "Y",
      "COMP24FL": "N",
      "AVISIT": "Week 24",
      "AVISITN": 24.0,
      "VISIT": "RETRIEVAL",
      "VISITNUM": 201.0,
      "ADY": 198.0,
      "ADT": 19407.0,
      "PARAM": "Comprehension Of Spoken Language",
      "PARAMCD": "ACITM12",
      "PARAMN": 12.0,
      "AVAL": 1.0,
      "BASE": 5.397605346934028e-79,
      "CHG": 1.0,
      "PCHG": NaN,
      "ABLFL": "",
      "ANL01FL": "Y",
      "DTYPE": "",
      "AWRANGE": ">140",
      "AWTARGET": 168.0,
      "AWTDIFF": 30.0,
      "AWLO": 141.0,
      "AWHI": NaN,
      "AWU": "DAYS",
      "QSSEQ": 5042.0
    },
    {
      "STUDYID": "CDISCPILOT01",
      "SITEID": "701",
      "SITEGR1": "701",
      "USUBJID": "01-701-1023",
      "TRTSDT": 19210.0,
      "TRTEDT": 19237.0,
      "TRTP": "Placebo",
      "TRTPN": 5.397605346934028e-79,
      "AGE": 64.0,
      "AGEGR1": "<65",
      "AGEGR1N": 1.0,
      "RACE": "WHITE",
      "RACEN": 1.0,
      "SEX": "M",
      "ITTFL": "Y",
      "EFFFL": "Y",
      "COMP24FL": "N",
      "AVISIT": "Baseline",
      "AVISITN": 5.397605346934028e-79,
      "VISIT": "BASELINE",
      "VISITNUM": 3.0,
      "ADY": 1.0,
      "ADT": 19210.0,
      "PARAM": "Word Finding Difficulty In Spontaneous S",
      "PARAMCD": "ACITM13",
      "PARAMN": 13.0,
      "AVAL": 5.397605346934028e-79,
      "BASE": 5.397605346934028e-79,
      "CHG": NaN,
      "PCHG": NaN,
      "ABLFL": "Y",
      "ANL01FL": "Y",
      "DTYPE": "",
      "AWRANGE": "<=1",
      "AWTARGET": 1.0,
      "AWTDIFF": 5.397605346934028e-79,
      "AWLO": NaN,
      "AWHI": 1.0,
      "AWU": "DAYS",
      "QSSEQ": 5013.0
    },
    {
      "STUDYID": "CDISCPILOT01",
      "SITEID": "701",
      "SITEGR1": "701",
      "USUBJID": "01-701-1023",
      "TRTSDT": 19210.0,
      "TRTEDT": 19237.0,
      "TRTP": "Placebo",
      "TRTPN": 5.397605346934028e-79,
      "AGE": 64.0,
      "AGEGR1": "<65",
      "AGEGR1N": 1.0,
      "RACE": "WHITE",
      "RACEN": 1.0,
      "SEX": "M",
      "ITTFL": "Y",
      "EFFFL": "Y",
      "COMP24FL": "N",
      "AVISIT": "Week 8",
      "AVISITN": 8.0,
      "VISIT": "WEEK 4",
      "VISITNUM": 5.0,
      "ADY": 29.0,
      "ADT": 19238.0,
      "PARAM": "Word Finding Difficulty In Spontaneous S",
      "PARAMCD": "ACITM13",
      "PARAMN": 13.0,
      "AVAL": 5.397605346934028e-79,
      "BASE": 5.397605346934028e-79,
      "CHG": 5.397605346934028e-79,
      "PCHG": NaN,
      "ABLFL": "",
      "ANL01FL": "Y",
      "DTYPE": "",
      "AWRANGE": "2-84",
      "AWTARGET": 56.0,
      "AWTDIFF": 27.0,
      "AWLO": 2.0,
      "AWHI": 84.0,
      "AWU": "DAYS",
      "QSSEQ": 5028.0
    },
    {
      "STUDYID": "CDISCPILOT01",
      "SITEID": "701",
      "SITEGR1": "701",
      "USUBJID": "01-701-1023",
      "TRTSDT": 19210.0,
      "TRTEDT": 19237.0,
      "TRTP": "Placebo",
      "TRTPN": 5.397605346934028e-79,
      "AGE": 64.0,
      "AGEGR1": "<65",
      "AGEGR1N": 1.0,
      "RACE": "WHITE",
      "RACEN": 1.0,
      "SEX": "M",
      "ITTFL": "Y",
      "EFFFL": "Y",
      "COMP24FL": "N",
      "AVISIT": "Week 24",
      "AVISITN": 24.0,
      "VISIT": "RETRIEVAL",
      "VISITNUM": 201.0,
      "ADY": 198.0,
      "ADT": 19407.0,
      "PARAM": "Word Finding Difficulty In Spontaneous S",
      "PARAMCD": "ACITM13",
      "PARAMN": 13.0,
      "AVAL": 1.0,
      "BASE": 5.397605346934028e-79,
      "CHG": 1.0,
      "PCHG": NaN,
      "ABLFL": "",
      "ANL01FL": "Y",
      "DTYPE": "",
      "AWRANGE": ">140",
      "AWTARGET": 168.0,
      "AWTDIFF": 30.0,
      "AWLO": 141.0,
      "AWHI": NaN,
      "AWU": "DAYS",
      "QSSEQ": 5043.0
    },
    {
      "STUDYID": "CDISCPILOT01",
      "SITEID": "701",
      "SITEGR1": "701",
      "USUBJID": "01-701-1023",
      "TRTSDT": 19210.0,
      "TRTEDT": 19237.0,
      "TRTP": "Placebo",
      "TRTPN": 5.397605346934028e-79,
      "AGE": 64.0,
      "AGEGR1": "<65",
      "AGEGR1N": 1.0,
      "RACE": "WHITE",
      "RACEN": 1.0,
      "SEX": "M",
      "ITTFL": "Y",
      "EFFFL": "Y",
      "COMP24FL": "N",
      "AVISIT": "Baseline",
      "AVISITN": 5.397605346934028e-79,
      "VISIT": "BASELINE",
      "VISITNUM": 3.0,
      "ADY": 1.0,
      "ADT": 19210.0,
      "PARAM": "Recall Of Test Instructions",
      "PARAMCD": "ACITM14",
      "PARAMN": 14.0,
      "AVAL": 5.397605346934028e-79,
      "BASE": 5.397605346934028e-79,
      "CHG": NaN,
      "PCHG": NaN,
      "ABLFL": "Y",
      "ANL01FL": "Y",
      "DTYPE": "",
      "AWRANGE": "<=1",
      "AWTARGET": 1.0,
      "AWTDIFF": 5.397605346934028e-79,
      "AWLO": NaN,
      "AWHI": 1.0,
      "AWU": "DAYS",
      "QSSEQ": 5014.0
    },
    {
      "STUDYID": "CDISCPILOT01",
      "SITEID": "701",
      "SITEGR1": "701",
      "USUBJID": "01-701-1023",
      "TRTSDT": 19210.0,
      "TRTEDT": 19237.0,
      "TRTP": "Placebo",
      "TRTPN": 5.397605346934028e-79,
      "AGE": 64.0,
      "AGEGR1": "<65",
      "AGEGR1N": 1.0,
      "RACE": "WHITE",
      "RACEN": 1.0,
      "SEX": "M",
      "ITTFL": "Y",
      "EFFFL": "Y",
      "COMP24FL": "N",
      "AVISIT": "Week 8",
      "AVISITN": 8.0,
      "VISIT": "WEEK 4",
      "VISITNUM": 5.0,
      "ADY": 29.0,
      "ADT": 19238.0,
      "PARAM": "Recall Of Test Instructions",
      "PARAMCD": "ACITM14",
      "PARAMN": 14.0,
      "AVAL": 5.397605346934028e-79,
      "BASE": 5.397605346934028e-79,
      "CHG": 5.397605346934028e-79,
      "PCHG": NaN,
      "ABLFL": "",
      "ANL01FL": "Y",
      "DTYPE": "",
      "AWRANGE": "2-84",
      "AWTARGET": 56.0,
      "AWTDIFF": 27.0,
      "AWLO": 2.0,
      "AWHI": 84.0,
      "AWU": "DAYS",
      "QSSEQ": 5029.0
    },
    {
      "STUDYID": "CDISCPILOT01",
      "SITEID": "701",
      "SITEGR1": "701",
      "USUBJID": "01-701-1023",
      "TRTSDT": 19210.0,
      "TRTEDT": 19237.0,
      "TRTP": "Placebo",
      "TRTPN": 5.397605346934028e-79,
      "AGE": 64.0,
      "AGEGR1": "<65",
      "AGEGR1N": 1.0,
      "RACE": "WHITE",
      "RACEN": 1.0,
      "SEX": "M",
      "ITTFL": "Y",
      "EFFFL": "Y",
      "COMP24FL": "N",
      "AVISIT": "Week 24",
      "AVISITN": 24.0,
      "VISIT": "RETRIEVAL",
      "VISITNUM": 201.0,
      "ADY": 198.0,
      "ADT": 19407.0,
      "PARAM": "Recall Of Test Instructions",
      "PARAMCD": "ACITM14",
      "PARAMN": 14.0,
      "AVAL": 1.0,
      "BASE": 5.397605346934028e-79,
      "CHG": 1.0,
      "PCHG": NaN,
      "ABLFL": "",
      "ANL01FL": "Y",
      "DTYPE": "",
      "AWRANGE": ">140",
      "AWTARGET": 168.0,
      "AWTDIFF": 30.0,
      "AWLO": 141.0,
      "AWHI": NaN,
      "AWU": "DAYS",
      "QSSEQ": 5044.0
    },
    {
      "STUDYID": "CDISCPILOT01",
      "SITEID": "701",
      "SITEGR1": "701",
      "USUBJID": "01-701-1023",
      "TRTSDT": 19210.0,
      "TRTEDT": 19237.0,
      "TRTP": "Placebo",
      "TRTPN": 5.397605346934028e-79,
      "AGE": 64.0,
      "AGEGR1": "<65",
      "AGEGR1N": 1.0,
      "RACE": "WHITE",
      "RACEN": 1.0,
      "SEX": "M",
      "ITTFL": "Y",
      "EFFFL": "Y",
      "COMP24FL": "N",
      "AVISIT": "Baseline",
      "AVISITN": 5.397605346934028e-79,
      "VISIT": "BASELINE",
      "VISITNUM": 3.0,
      "ADY": 1.0,
      "ADT": 19210.0,
      "PARAM": "Adas-Cog(11) Subscore",
      "PARAMCD": "ACTOT",
      "PARAMN": 15.0,
      "AVAL": 13.0,
      "BASE": 13.0,
      "CHG": NaN,
      "PCHG": NaN,
      "ABLFL": "Y",
      "ANL01FL": "Y",
      "DTYPE": "",
      "AWRANGE": "<=1",
      "AWTARGET": 1.0,
      "AWTDIFF": 5.397605346934028e-79,
      "AWLO": NaN,
      "AWHI": 1.0,
      "AWU": "DAYS",
      "QSSEQ": 5015.0
    },
    {
      "STUDYID": "CDISCPILOT01",
      "SITEID": "701",
      "SITEGR1": "701",
      "USUBJID": "01-701-1023",
      "TRTSDT": 19210.0,
      "TRTEDT": 19237.0,
      "TRTP": "Placebo",
      "TRTPN": 5.397605346934028e-79,
      "AGE": 64.0,
      "AGEGR1": "<65",
      "AGEGR1N": 1.0,
      "RACE": "WHITE",
      "RACEN": 1.0,
      "SEX": "M",
      "ITTFL": "Y",
      "EFFFL": "Y",
      "COMP24FL": "N",
      "AVISIT": "Week 8",
      "AVISITN": 8.0,
      "VISIT": "WEEK 4",
      "VISITNUM": 5.0,
      "ADY": 29.0,
      "ADT": 19238.0,
      "PARAM": "Adas-Cog(11) Subscore",
      "PARAMCD": "ACTOT",
      "PARAMN": 15.0,
      "AVAL": 8.0,
      "BASE": 13.0,
      "CHG": -5.0,
      "PCHG": -38.46153846153847,
      "ABLFL": "",
      "ANL01FL": "Y",
      "DTYPE": "",
      "AWRANGE": "2-84",
      "AWTARGET": 56.0,
      "AWTDIFF": 27.0,
      "AWLO": 2.0,
      "AWHI": 84.0,
      "AWU": "DAYS",
      "QSSEQ": 5030.0
    },
    {
      "STUDYID": "CDISCPILOT01",
      "SITEID": "701",
      "SITEGR1": "701",
      "USUBJID": "01-701-1023",
      "TRTSDT": 19210.0,
      "TRTEDT": 19237.0,
      "TRTP": "Placebo",
      "TRTPN": 5.397605346934028e-79,
      "AGE": 64.0,
      "AGEGR1": "<65",
      "AGEGR1N": 1.0,
      "RACE": "WHITE",
      "RACEN": 1.0,
      "SEX": "M",
      "ITTFL": "Y",
      "EFFFL": "Y",
      "COMP24FL": "N",
      "AVISIT": "Week 16",
      "AVISITN": 16.0,
      "VISIT": "WEEK 4",
      "VISITNUM": 5.0,
      "ADY": 29.0,
      "ADT": 19238.0,
      "PARAM": "Adas-Cog(11) Subscore",
      "PARAMCD": "ACTOT",
      "PARAMN": 15.0,
      "AVAL": 8.0,
      "BASE": 13.0,
      "CHG": -5.0,
      "PCHG": -38.46153846153847,
      "ABLFL": "",
      "ANL01FL": "Y",
      "DTYPE": "LOCF",
      "AWRANGE": "85-140",
      "AWTARGET": 112.0,
      "AWTDIFF": 83.0,
      "AWLO": 85.0,
      "AWHI": 140.0,
      "AWU": "DAYS",
      "QSSEQ": 5030.0
    },
    {
      "STUDYID": "CDISCPILOT01",
      "SITEID": "701",
      "SITEGR1": "701",
      "USUBJID": "01-701-1023",
      "TRTSDT": 19210.0,
      "TRTEDT": 19237.0,
      "TRTP": "Placebo",
      "TRTPN": 5.397605346934028e-79,
      "AGE": 64.0,
      "AGEGR1": "<65",
      "AGEGR1N": 1.0,
      "RACE": "WHITE",
      "RACEN": 1.0,
      "SEX": "M",
      "ITTFL": "Y",
      "EFFFL": "Y",
      "COMP24FL": "N",
      "AVISIT": "Week 24",
      "AVISITN": 24.0,
      "VISIT": "RETRIEVAL",
      "VISITNUM": 201.0,
      "ADY": 198.0,
      "ADT": 19407.0,
      "PARAM": "Adas-Cog(11) Subscore",
      "PARAMCD": "ACTOT",
      "PARAMN": 15.0,
      "AVAL": 12.0,
      "BASE": 13.0,
      "CHG": -1.0,
      "PCHG": -7.6923076923076925,
      "ABLFL": "",
      "ANL01FL": "Y",
      "DTYPE": "",
      "AWRANGE": ">140",
      "AWTARGET": 168.0,
      "AWTDIFF": 30.0,
      "AWLO": 141.0,
      "AWHI": NaN,
      "AWU": "DAYS",
      "QSSEQ": 5045.0
    },
    {
      "STUDYID": "CDISCPILOT01",
      "SITEID": "701",
      "SITEGR1": "701",
      "USUBJID": "01-701-1028",
      "TRTSDT": 19558.0,
      "TRTEDT": 19737.0,
      "TRTP": "Xanomeline High Dose",
      "TRTPN": 81.0,
      "AGE": 71.0,
      "AGEGR1": "65-80",
      "AGEGR1N": 2.0,
      "RACE": "WHITE",
      "RACEN": 1.0,
      "SEX": "M",
      "ITTFL": "Y",
      "EFFFL": "Y",
      "COMP24FL": "Y",
      "AVISIT": "Baseline",
      "AVISITN": 5.397605346934028e-79,
      "VISIT": "BASELINE",
      "VISITNUM": 3.0,
      "ADY": 1.0,
      "ADT": 19558.0,
      "PARAM": "Word Recall Task",
      "PARAMCD": "ACITM01",
      "PARAMN": 1.0,
      "AVAL": 1.0,
      "BASE": 1.0,
      "CHG": NaN,
      "PCHG": NaN,
      "ABLFL": "Y",
      "ANL01FL": "Y",
      "DTYPE": "",
      "AWRANGE": "<=1",
      "AWTARGET": 1.0,
      "AWTDIFF": 5.397605346934028e-79,
      "AWLO": NaN,
      "AWHI": 1.0,
      "AWU": "DAYS",
      "QSSEQ": 5001.0
    },
    {
      "STUDYID": "CDISCPILOT01",
      "SITEID": "701",
      "SITEGR1": "701",
      "USUBJID": "01-701-1028",
      "TRTSDT": 19558.0,
      "TRTEDT": 19737.0,
      "TRTP": "Xanomeline High Dose",
      "TRTPN": 81.0,
      "AGE": 71.0,
      "AGEGR1": "65-80",
      "AGEGR1N": 2.0,
      "RACE": "WHITE",
      "RACEN": 1.0,
      "SEX": "M",
      "ITTFL": "Y",
      "EFFFL": "Y",
      "COMP24FL": "Y",
      "AVISIT": "Week 8",
      "AVISITN": 8.0,
      "VISIT": "WEEK 8",
      "VISITNUM": 8.0,
      "ADY": 54.0,
      "ADT": 19611.0,
      "PARAM": "Word Recall Task",
      "PARAMCD": "ACITM01",
      "PARAMN": 1.0,
      "AVAL": 1.0,
      "BASE": 1.0,
      "CHG": 5.397605346934028e-79,
      "PCHG": 5.397605346934028e-79,
      "ABLFL": "",
      "ANL01FL": "Y",
      "DTYPE": "",
      "AWRANGE": "2-84",
      "AWTARGET": 56.0,
      "AWTDIFF": 2.0,
      "AWLO": 2.0,
      "AWHI": 84.0,
      "AWU": "DAYS",
      "QSSEQ": 5016.0
    },
    {
      "STUDYID": "CDISCPILOT01",
      "SITEID": "701",
      "SITEGR1": "701",
      "USUBJID": "01-701-1028",
      "TRTSDT": 19558.0,
      "TRTEDT": 19737.0,
      "TRTP": "Xanomeline High Dose",
      "TRTPN": 81.0,
      "AGE": 71.0,
      "AGEGR1": "65-80",
      "AGEGR1N": 2.0,
      "RACE": "WHITE",
      "RACEN": 1.0,
      "SEX": "M",
      "ITTFL": "Y",
      "EFFFL": "Y",
      "COMP24FL": "Y",
      "AVISIT": "Week 16",
      "AVISITN": 16.0,
      "VISIT": "WEEK 16",
      "VISITNUM": 10.0,
      "ADY": 111.0,
      "ADT": 19668.0,
      "PARAM": "Word Recall Task",
      "PARAMCD": "ACITM01",
      "PARAMN": 1.0,
      "AVAL": 3.0,
      "BASE": 1.0,
      "CHG": 2.0,
      "PCHG": 200.0,
      "ABLFL": "",
      "ANL01FL": "Y",
      "DTYPE": "",
      "AWRANGE": "85-140",
      "AWTARGET": 112.0,
      "AWTDIFF": 1.0,
      "AWLO": 85.0,
      "AWHI": 140.0,
      "AWU": "DAYS",
      "QSSEQ": 5031.0
    },
    {
      "STUDYID": "CDISCPILOT01",
      "SITEID": "701",
      "SITEGR1": "701",
      "USUBJID": "01-701-1028",
      "TRTSDT": 19558.0,
      "TRTEDT": 19737.0,
      "TRTP": "Xanomeline High Dose",
      "TRTPN": 81.0,
      "AGE": 71.0,
      "AGEGR1": "65-80",
      "AGEGR1N": 2.0,
      "RACE": "WHITE",
      "RACEN": 1.0,
      "SEX": "M",
      "ITTFL": "Y",
      "EFFFL": "Y",
      "COMP24FL": "Y",
      "AVISIT": "Week 24",
      "AVISITN": 24.0,
      "VISIT": "WEEK 24",
      "VISITNUM": 12.0,
      "ADY": 172.0,
      "ADT": 19729.0,
      "PARAM": "Word Recall Task",
      "PARAMCD": "ACITM01",
      "PARAMN": 1.0,
      "AVAL": 2.0,
      "BASE": 1.0,
      "CHG": 1.0,
      "PCHG": 100.0,
      "ABLFL": "",
      "ANL01FL": "Y",
      "DTYPE": "",
      "AWRANGE": ">140",
      "AWTARGET": 168.0,
      "AWTDIFF": 4.0,
      "AWLO": 141.0,
      "AWHI": NaN,
      "AWU": "DAYS",
      "QSSEQ": 5046.0
    },
    {
      "STUDYID": "CDISCPILOT01",
      "SITEID": "701",
      "SITEGR1": "701",
      "USUBJID": "01-701-1028",
      "TRTSDT": 19558.0,
      "TRTEDT": 19737.0,
      "TRTP": "Xanomeline High Dose",
      "TRTPN": 81.0,
      "AGE": 71.0,
      "AGEGR1": "65-80",
      "AGEGR1N": 2.0,
      "RACE": "WHITE",
      "RACEN": 1.0,
      "SEX": "M",
      "ITTFL": "Y",
      "EFFFL": "Y",
      "COMP24FL": "Y",
      "AVISIT": "Baseline",
      "AVISITN": 5.397605346934028e-79,
      "VISIT": "BASELINE",
      "VISITNUM": 3.0,
      "ADY": 1.0,
      "ADT": 19558.0,
      "PARAM": "Naming Objects And Fingers (Refer To 5 C",
      "PARAMCD": "ACITM02",
      "PARAMN": 2.0,
      "AVAL": 5.397605346934028e-79,
      "BASE": 5.397605346934028e-79,
      "CHG": NaN,
      "PCHG": NaN,
      "ABLFL": "Y",
      "ANL01FL": "Y",
      "DTYPE": "",
      "AWRANGE": "<=1",
      "AWTARGET": 1.0,
      "AWTDIFF": 5.397605346934028e-79,
      "AWLO": NaN,
      "AWHI": 1.0,
      "AWU": "DAYS",
      "QSSEQ": 5002.0
    },
    {
      "STUDYID": "CDISCPILOT01",
      "SITEID": "701",
      "SITEGR1": "701",
      "USUBJID": "01-701-1028",
      "TRTSDT": 19558.0,
      "TRTEDT": 19737.0,
      "TRTP": "Xanomeline High Dose",
      "TRTPN": 81.0,
      "AGE": 71.0,
      "AGEGR1": "65-80",
      "AGEGR1N": 2.0,
      "RACE": "WHITE",
      "RACEN": 1.0,
      "SEX": "M",
      "ITTFL": "Y",
      "EFFFL": "Y",
      "COMP24FL": "Y",
      "AVISIT": "Week 8",
      "AVISITN": 8.0,
      "VISIT": "WEEK 8",
      "VISITNUM": 8.0,
      "ADY": 54.0,
      "ADT": 19611.0,
      "PARAM": "Naming Objects And Fingers (Refer To 5 C",
      "PARAMCD": "ACITM02",
      "PARAMN": 2.0,
      "AVAL": 5.397605346934028e-79,
      "BASE": 5.397605346934028e-79,
      "CHG": 5.397605346934028e-79,
      "PCHG": NaN,
      "ABLFL": "",
      "ANL01FL": "Y",
      "DTYPE": "",
      "AWRANGE": "2-84",
      "AWTARGET": 56.0,
      "AWTDIFF": 2.0,
      "AWLO": 2.0,
      "AWHI": 84.0,
      "AWU": "DAYS",
      "QSSEQ": 5017.0
    },
    {
      "STUDYID": "CDISCPILOT01",
      "SITEID": "701",
      "SITEGR1": "701",
      "USUBJID": "01-701-1028",
      "TRTSDT": 19558.0,
      "TRTEDT": 19737.0,
      "TRTP": "Xanomeline High Dose",
      "TRTPN": 81.0,
      "AGE": 71.0,
      "AGEGR1": "65-80",
      "AGEGR1N": 2.0,
      "RACE": "WHITE",
      "RACEN": 1.0,
      "SEX": "M",
      "ITTFL": "Y",
      "EFFFL": "Y",
      "COMP24FL": "Y",
      "AVISIT": "Week 16",
      "AVISITN": 16.0,
      "VISIT": "WEEK 16",
      "VISITNUM": 10.0,
      "ADY": 111.0,
      "ADT": 19668.0,
      "PARAM": "Naming Objects And Fingers (Refer To 5 C",
      "PARAMCD": "ACITM02",
      "PARAMN": 2.0,
      "AVAL": 5.397605346934028e-79,
      "BASE": 5.397605346934028e-79,
      "CHG": 5.397605346934028e-79,
      "PCHG": NaN,
      "ABLFL": "",
      "ANL01FL": "Y",
      "DTYPE": "",
      "AWRANGE": "85-140",
      "AWTARGET": 112.0,
      "AWTDIFF": 1.0,
      "AWLO": 85.0,
      "AWHI": 140.0,
      "AWU": "DAYS",
      "QSSEQ": 5032.0
    },
    {
      "STUDYID": "CDISCPILOT01",
      "SITEID": "701",
      "SITEGR1": "701",
      "USUBJID": "01-701-1028",
      "TRTSDT": 19558.0,
      "TRTEDT": 19737.0,
      "TRTP": "Xanomeline High Dose",
      "TRTPN": 81.0,
      "AGE": 71.0,
      "AGEGR1": "65-80",
      "AGEGR1N": 2.0,
      "RACE": "WHITE",
      "RACEN": 1.0,
      "SEX": "M",
      "ITTFL": "Y",
      "EFFFL": "Y",
      "COMP24FL": "Y",
      "AVISIT": "Week 24",
      "AVISITN": 24.0,
      "VISIT": "WEEK 24",
      "VISITNUM": 12.0,
      "ADY": 172.0,
      "ADT": 19729.0,
      "PARAM": "Naming Objects And Fingers (Refer To 5 C",
      "PARAMCD": "ACITM02",
      "PARAMN": 2.0,
      "AVAL": 5.397605346934028e-79,
      "BASE": 5.397605346934028e-79,
      "CHG": 5.397605346934028e-79,
      "PCHG": NaN,
      "ABLFL": "",
      "ANL01FL": "Y",
      "DTYPE": "",
      "AWRANGE": ">140",
      "AWTARGET": 168.0,
      "AWTDIFF": 4.0,
      "AWLO": 141.0,
      "AWHI": NaN,
      "AWU": "DAYS",
      "QSSEQ": 5047.0
    },
    {
      "STUDYID": "CDISCPILOT01",
      "SITEID": "701",
      "SITEGR1": "701",
      "USUBJID": "01-701-1028",
      "TRTSDT": 19558.0,
      "TRTEDT": 19737.0,
      "TRTP": "Xanomeline High Dose",
      "TRTPN": 81.0,
      "AGE": 71.0,
      "AGEGR1": "65-80",
      "AGEGR1N": 2.0,
      "RACE": "WHITE",
      "RACEN": 1.0,
      "SEX": "M",
      "ITTFL": "Y",
      "EFFFL": "Y",
      "COMP24FL": "Y",
      "AVISIT": "Baseline",
      "AVISITN": 5.397605346934028e-79,
      "VISIT": "BASELINE",
      "VISITNUM": 3.0,
      "ADY": 1.0,
      "ADT": 19558.0,
      "PARAM": "Delayed Word Recall",
      "PARAMCD": "ACITM03",
      "PARAMN": 3.0,
      "AVAL": 1.0,
      "BASE": 1.0,
      "CHG": NaN,
      "PCHG": NaN,
      "ABLFL": "Y",
      "ANL01FL": "Y",
      "DTYPE": "",
      "AWRANGE": "<=1",
      "AWTARGET": 1.0,
      "AWTDIFF": 5.397605346934028e-79,
      "AWLO": NaN,
      "AWHI": 1.0,
      "AWU": "DAYS",
      "QSSEQ": 5003.0
    },
    {
      "STUDYID": "CDISCPILOT01",
      "SITEID": "701",
      "SITEGR1": "701",
      "USUBJID": "01-701-1028",
      "TRTSDT": 19558.0,
      "TRTEDT": 19737.0,
      "TRTP": "Xanomeline High Dose",
      "TRTPN": 81.0,
      "AGE": 71.0,
      "AGEGR1": "65-80",
      "AGEGR1N": 2.0,
      "RACE": "WHITE",
      "RACEN": 1.0,
      "SEX": "M",
      "ITTFL": "Y",
      "EFFFL": "Y",
      "COMP24FL": "Y",
      "AVISIT": "Week 8",
      "AVISITN": 8.0,
      "VISIT": "WEEK 8",
      "VISITNUM": 8.0,
      "ADY": 54.0,
      "ADT": 19611.0,
      "PARAM": "Delayed Word Recall",
      "PARAMCD": "ACITM03",
      "PARAMN": 3.0,
      "AVAL": 5.397605346934028e-79,
      "BASE": 1.0,
      "CHG": -1.0,
      "PCHG": -100.0,
      "ABLFL": "",
      "ANL01FL": "Y",
      "DTYPE": "",
      "AWRANGE": "2-84",
      "AWTARGET": 56.0,
      "AWTDIFF": 2.0,
      "AWLO": 2.0,
      "AWHI": 84.0,
      "AWU": "DAYS",
      "QSSEQ": 5018.0
    },
    {
      "STUDYID": "CDISCPILOT01",
      "SITEID": "701",
      "SITEGR1": "701",
      "USUBJID": "01-701-1028",
      "TRTSDT": 19558.0,
      "TRTEDT": 19737.0,
      "TRTP": "Xanomeline High Dose",
      "TRTPN": 81.0,
      "AGE": 71.0,
      "AGEGR1": "65-80",
      "AGEGR1N": 2.0,
      "RACE": "WHITE",
      "RACEN": 1.0,
      "SEX": "M",
      "ITTFL": "Y",
      "EFFFL": "Y",
      "COMP24FL": "Y",
      "AVISIT": "Week 16",
      "AVISITN": 16.0,
      "VISIT": "WEEK 16",
      "VISITNUM": 10.0,
      "ADY": 111.0,
      "ADT": 19668.0,
      "PARAM": "Delayed Word Recall",
      "PARAMCD": "ACITM03",
      "PARAMN": 3.0,
      "AVAL": 4.0,
      "BASE": 1.0,
      "CHG": 3.0,
      "PCHG": 300.0,
      "ABLFL": "",
      "ANL01FL": "Y",
      "DTYPE": "",
      "AWRANGE": "85-140",
      "AWTARGET": 112.0,
      "AWTDIFF": 1.0,
      "AWLO": 85.0,
      "AWHI": 140.0,
      "AWU": "DAYS",
      "QSSEQ": 5033.0
    },
    {
      "STUDYID": "CDISCPILOT01",
      "SITEID": "701",
      "SITEGR1": "701",
      "USUBJID": "01-701-1028",
      "TRTSDT": 19558.0,
      "TRTEDT": 19737.0,
      "TRTP": "Xanomeline High Dose",
      "TRTPN": 81.0,
      "AGE": 71.0,
      "AGEGR1": "65-80",
      "AGEGR1N": 2.0,
      "RACE": "WHITE",
      "RACEN": 1.0,
      "SEX": "M",
      "ITTFL": "Y",
      "EFFFL": "Y",
      "COMP24FL": "Y",
      "AVISIT": "Week 24",
      "AVISITN": 24.0,
      "VISIT": "WEEK 24",
      "VISITNUM": 12.0,
      "ADY": 172.0,
      "ADT": 19729.0,
      "PARAM": "Delayed Word Recall",
      "PARAMCD": "ACITM03",
      "PARAMN": 3.0,
      "AVAL": 1.0,
      "BASE": 1.0,
      "CHG": 5.397605346934028e-79,
      "PCHG": 5.397605346934028e-79,
      "ABLFL": "",
      "ANL01FL": "Y",
      "DTYPE": "",
      "AWRANGE": ">140",
      "AWTARGET": 168.0,
      "AWTDIFF": 4.0,
      "AWLO": 141.0,
      "AWHI": NaN,
      "AWU": "DAYS",
      "QSSEQ": 5048.0
    },
    {
      "STUDYID": "CDISCPILOT01",
      "SITEID": "701",
      "SITEGR1": "701",
      "USUBJID": "01-701-1028",
      "TRTSDT": 19558.0,
      "TRTEDT": 19737.0,
      "TRTP": "Xanomeline High Dose",
      "TRTPN": 81.0,
      "AGE": 71.0,
      "AGEGR1": "65-80",
      "AGEGR1N": 2.0,
      "RACE": "WHITE",
      "RACEN": 1.0,
      "SEX": "M",
      "ITTFL": "Y",
      "EFFFL": "Y",
      "COMP24FL": "Y",
      "AVISIT": "Baseline",
      "AVISITN": 5.397605346934028e-79,
      "VISIT": "BASELINE",
      "VISITNUM": 3.0,
      "ADY": 1.0,
      "ADT": 19558.0,
      "PARAM": "Commands",
      "PARAMCD": "ACITM04",
      "PARAMN": 4.0,
      "AVAL": 5.397605346934028e-79,
      "BASE": 5.397605346934028e-79,
      "CHG": NaN,
      "PCHG": NaN,
      "ABLFL": "Y",
      "ANL01FL": "Y",
      "DTYPE": "",
      "AWRANGE": "<=1",
      "AWTARGET": 1.0,
      "AWTDIFF": 5.397605346934028e-79,
      "AWLO": NaN,
      "AWHI": 1.0,
      "AWU": "DAYS",
      "QSSEQ": 5004.0
    },
    {
      "STUDYID": "CDISCPILOT01",
      "SITEID": "701",
      "SITEGR1": "701",
      "USUBJID": "01-701-1028",
      "TRTSDT": 19558.0,
      "TRTEDT": 19737.0,
      "TRTP": "Xanomeline High Dose",
      "TRTPN": 81.0,
      "AGE": 71.0,
      "AGEGR1": "65-80",
      "AGEGR1N": 2.0,
      "RACE": "WHITE",
      "RACEN": 1.0,
      "SEX": "M",
      "ITTFL": "Y",
      "EFFFL": "Y",
      "COMP24FL": "Y",
      "AVISIT": "Week 8",
      "AVISITN": 8.0,
      "VISIT": "WEEK 8",
      "VISITNUM": 8.0,
      "ADY": 54.0,
      "ADT": 19611.0,
      "PARAM": "Commands",
      "PARAMCD": "ACITM04",
      "PARAMN": 4.0,
      "AVAL": 5.397605346934028e-79,
      "BASE": 5.397605346934028e-79,
      "CHG": 5.397605346934028e-79,
      "PCHG": NaN,
      "ABLFL": "",
      "ANL01FL": "Y",
      "DTYPE": "",
      "AWRANGE": "2-84",
      "AWTARGET": 56.0,
      "AWTDIFF": 2.0,
      "AWLO": 2.0,
      "AWHI": 84.0,
      "AWU": "DAYS",
      "QSSEQ": 5019.0
    },
    {
      "STUDYID": "CDISCPILOT01",
      "SITEID": "701",
      "SITEGR1": "701",
      "USUBJID": "01-701-1028",
      "TRTSDT": 19558.0,
      "TRTEDT": 19737.0,
      "TRTP": "Xanomeline High Dose",
      "TRTPN": 81.0,
      "AGE": 71.0,
      "AGEGR1": "65-80",
      "AGEGR1N": 2.0,
      "RACE": "WHITE",
      "RACEN": 1.0,
      "SEX": "M",
      "ITTFL": "Y",
      "EFFFL": "Y",
      "COMP24FL": "Y",
      "AVISIT": "Week 16",
      "AVISITN": 16.0,
      "VISIT": "WEEK 16",
      "VISITNUM": 10.0,
      "ADY": 111.0,
      "ADT": 19668.0,
      "PARAM": "Commands",
      "PARAMCD": "ACITM04",
      "PARAMN": 4.0,
      "AVAL": 5.397605346934028e-79,
      "BASE": 5.397605346934028e-79,
      "CHG": 5.397605346934028e-79,
      "PCHG": NaN,
      "ABLFL": "",
      "ANL01FL": "Y",
      "DTYPE": "",
      "AWRANGE": "85-140",
      "AWTARGET": 112.0,
      "AWTDIFF": 1.0,
      "AWLO": 85.0,
      "AWHI": 140.0,
      "AWU": "DAYS",
      "QSSEQ": 5034.0
    },
    {
      "STUDYID": "CDISCPILOT01",
      "SITEID": "701",
      "SITEGR1": "701",
      "USUBJID": "01-701-1028",
      "TRTSDT": 19558.0,
      "TRTEDT": 19737.0,
      "TRTP": "Xanomeline High Dose",
      "TRTPN": 81.0,
      "AGE": 71.0,
      "AGEGR1": "65-80",
      "AGEGR1N": 2.0,
      "RACE": "WHITE",
      "RACEN": 1.0,
      "SEX": "M",
      "ITTFL": "Y",
      "EFFFL": "Y",
      "COMP24FL": "Y",
      "AVISIT": "Week 24",
      "AVISITN": 24.0,
      "VISIT": "WEEK 24",
      "VISITNUM": 12.0,
      "ADY": 172.0,
      "ADT": 19729.0,
      "PARAM": "Commands",
      "PARAMCD": "ACITM04",
      "PARAMN": 4.0,
      "AVAL": 5.397605346934028e-79,
      "BASE": 5.397605346934028e-79,
      "CHG": 5.397605346934028e-79,
      "PCHG": NaN,
      "ABLFL": "",
      "ANL01FL": "Y",
      "DTYPE": "",
      "AWRANGE": ">140",
      "AWTARGET": 168.0,
      "AWTDIFF": 4.0,
      "AWLO": 141.0,
      "AWHI": NaN,
      "AWU": "DAYS",
      "QSSEQ": 5049.0
    },
    {
      "STUDYID": "CDISCPILOT01",
      "SITEID": "701",
      "SITEGR1": "701",
      "USUBJID": "01-701-1028",
      "TRTSDT": 19558.0,
      "TRTEDT": 19737.0,
      "TRTP": "Xanomeline High Dose",
      "TRTPN": 81.0,
      "AGE": 71.0,
      "AGEGR1": "65-80",
      "AGEGR1N": 2.0,
      "RACE": "WHITE",
      "RACEN": 1.0,
      "SEX": "M",
      "ITTFL": "Y",
      "EFFFL": "Y",
      "COMP24FL": "Y",
      "AVISIT": "Baseline",
      "AVISITN": 5.397605346934028e-79,
      "VISIT": "BASELINE",
      "VISITNUM": 3.0,
      "ADY": 1.0,
      "ADT": 19558.0,
      "PARAM": "Constructional Praxis",
      "PARAMCD": "ACITM05",
      "PARAMN": 5.0,
      "AVAL": 5.397605346934028e-79,
      "BASE": 5.397605346934028e-79,
      "CHG": NaN,
      "PCHG": NaN,
      "ABLFL": "Y",
      "ANL01FL": "Y",
      "DTYPE": "",
      "AWRANGE": "<=1",
      "AWTARGET": 1.0,
      "AWTDIFF": 5.397605346934028e-79,
      "AWLO": NaN,
      "AWHI": 1.0,
      "AWU": "DAYS",
      "QSSEQ": 5005.0
    },
    {
      "STUDYID": "CDISCPILOT01",
      "SITEID": "701",
      "SITEGR1": "701",
      "USUBJID": "01-701-1028",
      "TRTSDT": 19558.0,
      "TRTEDT": 19737.0,
      "TRTP": "Xanomeline High Dose",
      "TRTPN": 81.0,
      "AGE": 71.0,
      "AGEGR1": "65-80",
      "AGEGR1N": 2.0,
      "RACE": "WHITE",
      "RACEN": 1.0,
      "SEX": "M",
      "ITTFL": "Y",
      "EFFFL": "Y",
      "COMP24FL": "Y",
      "AVISIT": "Week 8",
      "AVISITN": 8.0,
      "VISIT": "WEEK 8",
      "VISITNUM": 8.0,
      "ADY": 54.0,
      "ADT": 19611.0,
      "PARAM": "Constructional Praxis",
      "PARAMCD": "ACITM05",
      "PARAMN": 5.0,
      "AVAL": 5.397605346934028e-79,
      "BASE": 5.397605346934028e-79,
      "CHG": 5.397605346934028e-79,
      "PCHG": NaN,
      "ABLFL": "",
      "ANL01FL": "Y",
      "DTYPE": "",
      "AWRANGE": "2-84",
      "AWTARGET": 56.0,
      "AWTDIFF": 2.0,
      "AWLO": 2.0,
      "AWHI": 84.0,
      "AWU": "DAYS",
      "QSSEQ": 5020.0
    },
    {
      "STUDYID": "CDISCPILOT01",
      "SITEID": "701",
      "SITEGR1": "701",
      "USUBJID": "01-701-1028",
      "TRTSDT": 19558.0,
      "TRTEDT": 19737.0,
      "TRTP": "Xanomeline High Dose",
      "TRTPN": 81.0,
      "AGE": 71.0,
      "AGEGR1": "65-80",
      "AGEGR1N": 2.0,
      "RACE": "WHITE",
      "RACEN": 1.0,
      "SEX": "M",
      "ITTFL": "Y",
      "EFFFL": "Y",
      "COMP24FL": "Y",
      "AVISIT": "Week 16",
      "AVISITN": 16.0,
      "VISIT": "WEEK 16",
      "VISITNUM": 10.0,
      "ADY": 111.0,
      "ADT": 19668.0,
      "PARAM": "Constructional Praxis",
      "PARAMCD": "ACITM05",
      "PARAMN": 5.0,
      "AVAL": 5.397605346934028e-79,
      "BASE": 5.397605346934028e-79,
      "CHG": 5.397605346934028e-79,
      "PCHG": NaN,
      "ABLFL": "",
      "ANL01FL": "Y",
      "DTYPE": "",
      "AWRANGE": "85-140",
      "AWTARGET": 112.0,
      "AWTDIFF": 1.0,
      "AWLO": 85.0,
      "AWHI": 140.0,
      "AWU": "DAYS",
      "QSSEQ": 5035.0
    },
    {
      "STUDYID": "CDISCPILOT01",
      "SITEID": "701",
      "SITEGR1": "701",
      "USUBJID": "01-701-1028",
      "TRTSDT": 19558.0,
      "TRTEDT": 19737.0,
      "TRTP": "Xanomeline High Dose",
      "TRTPN": 81.0,
      "AGE": 71.0,
      "AGEGR1": "65-80",
      "AGEGR1N": 2.0,
      "RACE": "WHITE",
      "RACEN": 1.0,
      "SEX": "M",
      "ITTFL": "Y",
      "EFFFL": "Y",
      "COMP24FL": "Y",
      "AVISIT": "Week 24",
      "AVISITN": 24.0,
      "VISIT": "WEEK 24",
      "VISITNUM": 12.0,
      "ADY": 172.0,
      "ADT": 19729.0,
      "PARAM": "Constructional Praxis",
      "PARAMCD": "ACITM05",
      "PARAMN": 5.0,
      "AVAL": 5.397605346934028e-79,
      "BASE": 5.397605346934028e-79,
      "CHG": 5.397605346934028e-79,
      "PCHG": NaN,
      "ABLFL": "",
      "ANL01FL": "Y",
      "DTYPE": "",
      "AWRANGE": ">140",
      "AWTARGET": 168.0,
      "AWTDIFF": 4.0,
      "AWLO": 141.0,
      "AWHI": NaN,
      "AWU": "DAYS",
      "QSSEQ": 5050.0
    },
    {
      "STUDYID": "CDISCPILOT01",
      "SITEID": "701",
      "SITEGR1": "701",
      "USUBJID": "01-701-1028",
      "TRTSDT": 19558.0,
      "TRTEDT": 19737.0,
      "TRTP": "Xanomeline High Dose",
      "TRTPN": 81.0,
      "AGE": 71.0,
      "AGEGR1": "65-80",
      "AGEGR1N": 2.0,
      "RACE": "WHITE",
      "RACEN": 1.0,
      "SEX": "M",
      "ITTFL": "Y",
      "EFFFL": "Y",
      "COMP24FL": "Y",
      "AVISIT": "Baseline",
      "AVISITN": 5.397605346934028e-79,
      "VISIT": "BASELINE",
      "VISITNUM": 3.0,
      "ADY": 1.0,
      "ADT": 19558.0,
      "PARAM": "Ideational Praxis",
      "PARAMCD": "ACITM06",
      "PARAMN": 6.0,
      "AVAL": 5.397605346934028e-79,
      "BASE": 5.397605346934028e-79,
      "CHG": NaN,
      "PCHG": NaN,
      "ABLFL": "Y",
      "ANL01FL": "Y",
      "DTYPE": "",
      "AWRANGE": "<=1",
      "AWTARGET": 1.0,
      "AWTDIFF": 5.397605346934028e-79,
      "AWLO": NaN,
      "AWHI": 1.0,
      "AWU": "DAYS",
      "QSSEQ": 5006.0
    },
    {
      "STUDYID": "CDISCPILOT01",
      "SITEID": "701",
      "SITEGR1": "701",
      "USUBJID": "01-701-1028",
      "TRTSDT": 19558.0,
      "TRTEDT": 19737.0,
      "TRTP": "Xanomeline High Dose",
      "TRTPN": 81.0,
      "AGE": 71.0,
      "AGEGR1": "65-80",
      "AGEGR1N": 2.0,
      "RACE": "WHITE",
      "RACEN": 1.0,
      "SEX": "M",
      "ITTFL": "Y",
      "EFFFL": "Y",
      "COMP24FL": "Y",
      "AVISIT": "Week 8",
      "AVISITN": 8.0,
      "VISIT": "WEEK 8",
      "VISITNUM": 8.0,
      "ADY": 54.0,
      "ADT": 19611.0,
      "PARAM": "Ideational Praxis",
      "PARAMCD": "ACITM06",
      "PARAMN": 6.0,
      "AVAL": 5.397605346934028e-79,
      "BASE": 5.397605346934028e-79,
      "CHG": 5.397605346934028e-79,
      "PCHG": NaN,
      "ABLFL": "",
      "ANL01FL": "Y",
      "DTYPE": "",
      "AWRANGE": "2-84",
      "AWTARGET": 56.0,
      "AWTDIFF": 2.0,
      "AWLO": 2.0,
      "AWHI": 84.0,
      "AWU": "DAYS",
      "QSSEQ": 5021.0
    },
    {
      "STUDYID": "CDISCPILOT01",
      "SITEID": "701",
      "SITEGR1": "701",
      "USUBJID": "01-701-1028",
      "TRTSDT": 19558.0,
      "TRTEDT": 19737.0,
      "TRTP": "Xanomeline High Dose",
      "TRTPN": 81.0,
      "AGE": 71.0,
      "AGEGR1": "65-80",
      "AGEGR1N": 2.0,
      "RACE": "WHITE",
      "RACEN": 1.0,
      "SEX": "M",
      "ITTFL": "Y",
      "EFFFL": "Y",
      "COMP24FL": "Y",
      "AVISIT": "Week 16",
      "AVISITN": 16.0,
      "VISIT": "WEEK 16",
      "VISITNUM": 10.0,
      "ADY": 111.0,
      "ADT": 19668.0,
      "PARAM": "Ideational Praxis",
      "PARAMCD": "ACITM06",
      "PARAMN": 6.0,
      "AVAL": 5.397605346934028e-79,
      "BASE": 5.397605346934028e-79,
      "CHG": 5.397605346934028e-79,
      "PCHG": NaN,
      "ABLFL": "",
      "ANL01FL": "Y",
      "DTYPE": "",
      "AWRANGE": "85-140",
      "AWTARGET": 112.0,
      "AWTDIFF": 1.0,
      "AWLO": 85.0,
      "AWHI": 140.0,
      "AWU": "DAYS",
      "QSSEQ": 5036.0
    },
    {
      "STUDYID": "CDISCPILOT01",
      "SITEID": "701",
      "SITEGR1": "701",
      "USUBJID": "01-701-1028",
      "TRTSDT": 19558.0,
      "TRTEDT": 19737.0,
      "TRTP": "Xanomeline High Dose",
      "TRTPN": 81.0,
      "AGE": 71.0,
      "AGEGR1": "65-80",
      "AGEGR1N": 2.0,
      "RACE": "WHITE",
      "RACEN": 1.0,
      "SEX": "M",
      "ITTFL": "Y",
      "EFFFL": "Y",
      "COMP24FL": "Y",
      "AVISIT": "Week 24",
      "AVISITN": 24.0,
      "VISIT": "WEEK 24",
      "VISITNUM": 12.0,
      "ADY": 172.0,
      "ADT": 19729.0,
      "PARAM": "Ideational Praxis",
      "PARAMCD": "ACITM06",
      "PARAMN": 6.0,
      "AVAL": 5.397605346934028e-79,
      "BASE": 5.397605346934028e-79,
      "CHG": 5.397605346934028e-79,
      "PCHG": NaN,
      "ABLFL": "",
      "ANL01FL": "Y",
      "DTYPE": "",
      "AWRANGE": ">140",
      "AWTARGET": 168.0,
      "AWTDIFF": 4.0,
      "AWLO": 141.0,
      "AWHI": NaN,
      "AWU": "DAYS",
      "QSSEQ": 5051.0
    },
    {
      "STUDYID": "CDISCPILOT01",
      "SITEID": "701",
      "SITEGR1": "701",
      "USUBJID": "01-701-1028",
      "TRTSDT": 19558.0,
      "TRTEDT": 19737.0,
      "TRTP": "Xanomeline High Dose",
      "TRTPN": 81.0,
      "AGE": 71.0,
      "AGEGR1": "65-80",
      "AGEGR1N": 2.0,
      "RACE": "WHITE",
      "RACEN": 1.0,
      "SEX": "M",
      "ITTFL": "Y",
      "EFFFL": "Y",
      "COMP24FL": "Y",
      "AVISIT": "Baseline",
      "AVISITN": 5.397605346934028e-79,
      "VISIT": "BASELINE",
      "VISITNUM": 3.0,
      "ADY": 1.0,
      "ADT": 19558.0,
      "PARAM": "Orientation",
      "PARAMCD": "ACITM07",
      "PARAMN": 7.0,
      "AVAL": 5.397605346934028e-79,
      "BASE": 5.397605346934028e-79,
      "CHG": NaN,
      "PCHG": NaN,
      "ABLFL": "Y",
      "ANL01FL": "Y",
      "DTYPE": "",
      "AWRANGE": "<=1",
      "AWTARGET": 1.0,
      "AWTDIFF": 5.397605346934028e-79,
      "AWLO": NaN,
      "AWHI": 1.0,
      "AWU": "DAYS",
      "QSSEQ": 5007.0
    },
    {
      "STUDYID": "CDISCPILOT01",
      "SITEID": "701",
      "SITEGR1": "701",
      "USUBJID": "01-701-1028",
      "TRTSDT": 19558.0,
      "TRTEDT": 19737.0,
      "TRTP": "Xanomeline High Dose",
      "TRTPN": 81.0,
      "AGE": 71.0,
      "AGEGR1": "65-80",
      "AGEGR1N": 2.0,
      "RACE": "WHITE",
      "RACEN": 1.0,
      "SEX": "M",
      "ITTFL": "Y",
      "EFFFL": "Y",
      "COMP24FL": "Y",
      "AVISIT": "Week 8",
      "AVISITN": 8.0,
      "VISIT": "WEEK 8",
      "VISITNUM": 8.0,
      "ADY": 54.0,
      "ADT": 19611.0,
      "PARAM": "Orientation",
      "PARAMCD": "ACITM07",
      "PARAMN": 7.0,
      "AVAL": 5.397605346934028e-79,
      "BASE": 5.397605346934028e-79,
      "CHG": 5.397605346934028e-79,
      "PCHG": NaN,
      "ABLFL": "",
      "ANL01FL": "Y",
      "DTYPE": "",
      "AWRANGE": "2-84",
      "AWTARGET": 56.0,
      "AWTDIFF": 2.0,
      "AWLO": 2.0,
      "AWHI": 84.0,
      "AWU": "DAYS",
      "QSSEQ": 5022.0
    },
    {
      "STUDYID": "CDISCPILOT01",
      "SITEID": "701",
      "SITEGR1": "701",
      "USUBJID": "01-701-1028",
      "TRTSDT": 19558.0,
      "TRTEDT": 19737.0,
      "TRTP": "Xanomeline High Dose",
      "TRTPN": 81.0,
      "AGE": 71.0,
      "AGEGR1": "65-80",
      "AGEGR1N": 2.0,
      "RACE": "WHITE",
      "RACEN": 1.0,
      "SEX": "M",
      "ITTFL": "Y",
      "EFFFL": "Y",
      "COMP24FL": "Y",
      "AVISIT": "Week 16",
      "AVISITN": 16.0,
      "VISIT": "WEEK 16",
      "VISITNUM": 10.0,
      "ADY": 111.0,
      "ADT": 19668.0,
      "PARAM": "Orientation",
      "PARAMCD": "ACITM07",
      "PARAMN": 7.0,
      "AVAL": 5.397605346934028e-79,
      "BASE": 5.397605346934028e-79,
      "CHG": 5.397605346934028e-79,
      "PCHG": NaN,
      "ABLFL": "",
      "ANL01FL": "Y",
      "DTYPE": "",
      "AWRANGE": "85-140",
      "AWTARGET": 112.0,
      "AWTDIFF": 1.0,
      "AWLO": 85.0,
      "AWHI": 140.0,
      "AWU": "DAYS",
      "QSSEQ": 5037.0
    },
    {
      "STUDYID": "CDISCPILOT01",
      "SITEID": "701",
      "SITEGR1": "701",
      "USUBJID": "01-701-1028",
      "TRTSDT": 19558.0,
      "TRTEDT": 19737.0,
      "TRTP": "Xanomeline High Dose",
      "TRTPN": 81.0,
      "AGE": 71.0,
      "AGEGR1": "65-80",
      "AGEGR1N": 2.0,
      "RACE": "WHITE",
      "RACEN": 1.0,
      "SEX": "M",
      "ITTFL": "Y",
      "EFFFL": "Y",
      "COMP24FL": "Y",
      "AVISIT": "Week 24",
      "AVISITN": 24.0,
      "VISIT": "WEEK 24",
      "VISITNUM": 12.0,
      "ADY": 172.0,
      "ADT": 19729.0,
      "PARAM": "Orientation",
      "PARAMCD": "ACITM07",
      "PARAMN": 7.0,
      "AVAL": 5.397605346934028e-79,
      "BASE": 5.397605346934028e-79,
      "CHG": 5.397605346934028e-79,
      "PCHG": NaN,
      "ABLFL": "",
      "ANL01FL": "Y",
      "DTYPE": "",
      "AWRANGE": ">140",
      "AWTARGET": 168.0,
      "AWTDIFF": 4.0,
      "AWLO": 141.0,
      "AWHI": NaN,
      "AWU": "DAYS",
      "QSSEQ": 5052.0
    },
    {
      "STUDYID": "CDISCPILOT01",
      "SITEID": "701",
      "SITEGR1": "701",
      "USUBJID": "01-701-1028",
      "TRTSDT": 19558.0,
      "TRTEDT": 19737.0,
      "TRTP": "Xanomeline High Dose",
      "TRTPN": 81.0,
      "AGE": 71.0,
      "AGEGR1": "65-80",
      "AGEGR1N": 2.0,
      "RACE": "WHITE",
      "RACEN": 1.0,
      "SEX": "M",
      "ITTFL": "Y",
      "EFFFL": "Y",
      "COMP24FL": "Y",
      "AVISIT": "Baseline",
      "AVISITN": 5.397605346934028e-79,
      "VISIT": "BASELINE",
      "VISITNUM": 3.0,
      "ADY": 1.0,
      "ADT": 19558.0,
      "PARAM": "Word Recognition",
      "PARAMCD": "ACITM08",
      "PARAMN": 8.0,
      "AVAL": 2.0,
      "BASE": 2.0,
      "CHG": NaN,
      "PCHG": NaN,
      "ABLFL": "Y",
      "ANL01FL": "Y",
      "DTYPE": "",
      "AWRANGE": "<=1",
      "AWTARGET": 1.0,
      "AWTDIFF": 5.397605346934028e-79,
      "AWLO": NaN,
      "AWHI": 1.0,
      "AWU": "DAYS",
      "QSSEQ": 5008.0
    },
    {
      "STUDYID": "CDISCPILOT01",
      "SITEID": "701",
      "SITEGR1": "701",
      "USUBJID": "01-701-1028",
      "TRTSDT": 19558.0,
      "TRTEDT": 19737.0,
      "TRTP": "Xanomeline High Dose",
      "TRTPN": 81.0,
      "AGE": 71.0,
      "AGEGR1": "65-80",
      "AGEGR1N": 2.0,
      "RACE": "WHITE",
      "RACEN": 1.0,
      "SEX": "M",
      "ITTFL": "Y",
      "EFFFL": "Y",
      "COMP24FL": "Y",
      "AVISIT": "Week 8",
      "AVISITN": 8.0,
      "VISIT": "WEEK 8",
      "VISITNUM": 8.0,
      "ADY": 54.0,
      "ADT": 19611.0,
      "PARAM": "Word Recognition",
      "PARAMCD": "ACITM08",
      "PARAMN": 8.0,
      "AVAL": 1.0,
      "BASE": 2.0,
      "CHG": -1.0,
      "PCHG": -50.0,
      "ABLFL": "",
      "ANL01FL": "Y",
      "DTYPE": "",
      "AWRANGE": "2-84",
      "AWTARGET": 56.0,
      "AWTDIFF": 2.0,
      "AWLO": 2.0,
      "AWHI": 84.0,
      "AWU": "DAYS",
      "QSSEQ": 5023.0
    },
    {
      "STUDYID": "CDISCPILOT01",
      "SITEID": "701",
      "SITEGR1": "701",
      "USUBJID": "01-701-1028",
      "TRTSDT": 19558.0,
      "TRTEDT": 19737.0,
      "TRTP": "Xanomeline High Dose",
      "TRTPN": 81.0,
      "AGE": 71.0,
      "AGEGR1": "65-80",
      "AGEGR1N": 2.0,
      "RACE": "WHITE",
      "RACEN": 1.0,
      "SEX": "M",
      "ITTFL": "Y",
      "EFFFL": "Y",
      "COMP24FL": "Y",
      "AVISIT": "Week 16",
      "AVISITN": 16.0,
      "VISIT": "WEEK 16",
      "VISITNUM": 10.0,
      "ADY": 111.0,
      "ADT": 19668.0,
      "PARAM": "Word Recognition",
      "PARAMCD": "ACITM08",
      "PARAMN": 8.0,
      "AVAL": 1.0,
      "BASE": 2.0,
      "CHG": -1.0,
      "PCHG": -50.0,
      "ABLFL": "",
      "ANL01FL": "Y",
      "DTYPE": "",
      "AWRANGE": "85-140",
      "AWTARGET": 112.0,
      "AWTDIFF": 1.0,
      "AWLO": 85.0,
      "AWHI": 140.0,
      "AWU": "DAYS",
      "QSSEQ": 5038.0
    },
    {
      "STUDYID": "CDISCPILOT01",
      "SITEID": "701",
      "SITEGR1": "701",
      "USUBJID": "01-701-1028",
      "TRTSDT": 19558.0,
      "TRTEDT": 19737.0,
      "TRTP": "Xanomeline High Dose",
      "TRTPN": 81.0,
      "AGE": 71.0,
      "AGEGR1": "65-80",
      "AGEGR1N": 2.0,
      "RACE": "WHITE",
      "RACEN": 1.0,
      "SEX": "M",
      "ITTFL": "Y",
      "EFFFL": "Y",
      "COMP24FL": "Y",
      "AVISIT": "Week 24",
      "AVISITN": 24.0,
      "VISIT": "WEEK 24",
      "VISITNUM": 12.0,
      "ADY": 172.0,
      "ADT": 19729.0,
      "PARAM": "Word Recognition",
      "PARAMCD": "ACITM08",
      "PARAMN": 8.0,
      "AVAL": 1.0,
      "BASE": 2.0,
      "CHG": -1.0,
      "PCHG": -50.0,
      "ABLFL": "",
      "ANL01FL": "Y",
      "DTYPE": "",
      "AWRANGE": ">140",
      "AWTARGET": 168.0,
      "AWTDIFF": 4.0,
      "AWLO": 141.0,
      "AWHI": NaN,
      "AWU": "DAYS",
      "QSSEQ": 5053.0
    },
    {
      "STUDYID": "CDISCPILOT01",
      "SITEID": "701",
      "SITEGR1": "701",
      "USUBJID": "01-701-1028",
      "TRTSDT": 19558.0,
      "TRTEDT": 19737.0,
      "TRTP": "Xanomeline High Dose",
      "TRTPN": 81.0,
      "AGE": 71.0,
      "AGEGR1": "65-80",
      "AGEGR1N": 2.0,
      "RACE": "WHITE",
      "RACEN": 1.0,
      "SEX": "M",
      "ITTFL": "Y",
      "EFFFL": "Y",
      "COMP24FL": "Y",
      "AVISIT": "Baseline",
      "AVISITN": 5.397605346934028e-79,
      "VISIT": "BASELINE",
      "VISITNUM": 3.0,
      "ADY": 1.0,
      "ADT": 19558.0,
      "PARAM": "Attention/Visual Search Task",
      "PARAMCD": "ACITM09",
      "PARAMN": 9.0,
      "AVAL": 24.0,
      "BASE": 24.0,
      "CHG": NaN,
      "PCHG": NaN,
      "ABLFL": "Y",
      "ANL01FL": "Y",
      "DTYPE": "",
      "AWRANGE": "<=1",
      "AWTARGET": 1.0,
      "AWTDIFF": 5.397605346934028e-79,
      "AWLO": NaN,
      "AWHI": 1.0,
      "AWU": "DAYS",
      "QSSEQ": 5009.0
    },
    {
      "STUDYID": "CDISCPILOT01",
      "SITEID": "701",
      "SITEGR1": "701",
      "USUBJID": "01-701-1028",
      "TRTSDT": 19558.0,
      "TRTEDT": 19737.0,
      "TRTP": "Xanomeline High Dose",
      "TRTPN": 81.0,
      "AGE": 71.0,
      "AGEGR1": "65-80",
      "AGEGR1N": 2.0,
      "RACE": "WHITE",
      "RACEN": 1.0,
      "SEX": "M",
      "ITTFL": "Y",
      "EFFFL": "Y",
      "COMP24FL": "Y",
      "AVISIT": "Week 8",
      "AVISITN": 8.0,
      "VISIT": "WEEK 8",
      "VISITNUM": 8.0,
      "ADY": 54.0,
      "ADT": 19611.0,
      "PARAM": "Attention/Visual Search Task",
      "PARAMCD": "ACITM09",
      "PARAMN": 9.0,
      "AVAL": 25.0,
      "BASE": 24.0,
      "CHG": 1.0,
      "PCHG": 4.166666666666666,
      "ABLFL": "",
      "ANL01FL": "Y",
      "DTYPE": "",
      "AWRANGE": "2-84",
      "AWTARGET": 56.0,
      "AWTDIFF": 2.0,
      "AWLO": 2.0,
      "AWHI": 84.0,
      "AWU": "DAYS",
      "QSSEQ": 5024.0
    },
    {
      "STUDYID": "CDISCPILOT01",
      "SITEID": "701",
      "SITEGR1": "701",
      "USUBJID": "01-701-1028",
      "TRTSDT": 19558.0,
      "TRTEDT": 19737.0,
      "TRTP": "Xanomeline High Dose",
      "TRTPN": 81.0,
      "AGE": 71.0,
      "AGEGR1": "65-80",
      "AGEGR1N": 2.0,
      "RACE": "WHITE",
      "RACEN": 1.0,
      "SEX": "M",
      "ITTFL": "Y",
      "EFFFL": "Y",
      "COMP24FL": "Y",
      "AVISIT": "Week 16",
      "AVISITN": 16.0,
      "VISIT": "WEEK 16",
      "VISITNUM": 10.0,
      "ADY": 111.0,
      "ADT": 19668.0,
      "PARAM": "Attention/Visual Search Task",
      "PARAMCD": "ACITM09",
      "PARAMN": 9.0,
      "AVAL": 34.0,
      "BASE": 24.0,
      "CHG": 10.0,
      "PCHG": 41.66666666666667,
      "ABLFL": "",
      "ANL01FL": "Y",
      "DTYPE": "",
      "AWRANGE": "85-140",
      "AWTARGET": 112.0,
      "AWTDIFF": 1.0,
      "AWLO": 85.0,
      "AWHI": 140.0,
      "AWU": "DAYS",
      "QSSEQ": 5039.0
    },
    {
      "STUDYID": "CDISCPILOT01",
      "SITEID": "701",
      "SITEGR1": "701",
      "USUBJID": "01-701-1028",
      "TRTSDT": 19558.0,
      "TRTEDT": 19737.0,
      "TRTP": "Xanomeline High Dose",
      "TRTPN": 81.0,
      "AGE": 71.0,
      "AGEGR1": "65-80",
      "AGEGR1N": 2.0,
      "RACE": "WHITE",
      "RACEN": 1.0,
      "SEX": "M",
      "ITTFL": "Y",
      "EFFFL": "Y",
      "COMP24FL": "Y",
      "AVISIT": "Week 24",
      "AVISITN": 24.0,
      "VISIT": "WEEK 24",
      "VISITNUM": 12.0,
      "ADY": 172.0,
      "ADT": 19729.0,
      "PARAM": "Attention/Visual Search Task",
      "PARAMCD": "ACITM09",
      "PARAMN": 9.0,
      "AVAL": 26.0,
      "BASE": 24.0,
      "CHG": 2.0,
      "PCHG": 8.333333333333332,
      "ABLFL": "",
      "ANL01FL": "Y",
      "DTYPE": "",
      "AWRANGE": ">140",
      "AWTARGET": 168.0,
      "AWTDIFF": 4.0,
      "AWLO": 141.0,
      "AWHI": NaN,
      "AWU": "DAYS",
      "QSSEQ": 5054.0
    },
    {
      "STUDYID": "CDISCPILOT01",
      "SITEID": "701",
      "SITEGR1": "701",
      "USUBJID": "01-701-1028",
      "TRTSDT": 19558.0,
      "TRTEDT": 19737.0,
      "TRTP": "Xanomeline High Dose",
      "TRTPN": 81.0,
      "AGE": 71.0,
      "AGEGR1": "65-80",
      "AGEGR1N": 2.0,
      "RACE": "WHITE",
      "RACEN": 1.0,
      "SEX": "M",
      "ITTFL": "Y",
      "EFFFL": "Y",
      "COMP24FL": "Y",
      "AVISIT": "Baseline",
      "AVISITN": 5.397605346934028e-79,
      "VISIT": "BASELINE",
      "VISITNUM": 3.0,
      "ADY": 1.0,
      "ADT": 19558.0,
      "PARAM": "Maze Solution",
      "PARAMCD": "ACITM10",
      "PARAMN": 10.0,
      "AVAL": 4.0,
      "BASE": 4.0,
      "CHG": NaN,
      "PCHG": NaN,
      "ABLFL": "Y",
      "ANL01FL": "Y",
      "DTYPE": "",
      "AWRANGE": "<=1",
      "AWTARGET": 1.0,
      "AWTDIFF": 5.397605346934028e-79,
      "AWLO": NaN,
      "AWHI": 1.0,
      "AWU": "DAYS",
      "QSSEQ": 5010.0
    },
    {
      "STUDYID": "CDISCPILOT01",
      "SITEID": "701",
      "SITEGR1": "701",
      "USUBJID": "01-701-1028",
      "TRTSDT": 19558.0,
      "TRTEDT": 19737.0,
      "TRTP": "Xanomeline High Dose",
      "TRTPN": 81.0,
      "AGE": 71.0,
      "AGEGR1": "65-80",
      "AGEGR1N": 2.0,
      "RACE": "WHITE",
      "RACEN": 1.0,
      "SEX": "M",
      "ITTFL": "Y",
      "EFFFL": "Y",
      "COMP24FL": "Y",
      "AVISIT": "Week 8",
      "AVISITN": 8.0,
      "VISIT": "WEEK 8",
      "VISITNUM": 8.0,
      "ADY": 54.0,
      "ADT": 19611.0,
      "PARAM": "Maze Solution",
      "PARAMCD": "ACITM10",
      "PARAMN": 10.0,
      "AVAL": 5.0,
      "BASE": 4.0,
      "CHG": 1.0,
      "PCHG": 25.0,
      "ABLFL": "",
      "ANL01FL": "Y",
      "DTYPE": "",
      "AWRANGE": "2-84",
      "AWTARGET": 56.0,
      "AWTDIFF": 2.0,
      "AWLO": 2.0,
      "AWHI": 84.0,
      "AWU": "DAYS",
      "QSSEQ": 5025.0
    },
    {
      "STUDYID": "CDISCPILOT01",
      "SITEID": "701",
      "SITEGR1": "701",
      "USUBJID": "01-701-1028",
      "TRTSDT": 19558.0,
      "TRTEDT": 19737.0,
      "TRTP": "Xanomeline High Dose",
      "TRTPN": 81.0,
      "AGE": 71.0,
      "AGEGR1": "65-80",
      "AGEGR1N": 2.0,
      "RACE": "WHITE",
      "RACEN": 1.0,
      "SEX": "M",
      "ITTFL": "Y",
      "EFFFL": "Y",
      "COMP24FL": "Y",
      "AVISIT": "Week 16",
      "AVISITN": 16.0,
      "VISIT": "WEEK 16",
      "VISITNUM": 10.0,
      "ADY": 111.0,
      "ADT": 19668.0,
      "PARAM": "Maze Solution",
      "PARAMCD": "ACITM10",
      "PARAMN": 10.0,
      "AVAL": 5.0,
      "BASE": 4.0,
      "CHG": 1.0,
      "PCHG": 25.0,
      "ABLFL": "",
      "ANL01FL": "Y",
      "DTYPE": "",
      "AWRANGE": "85-140",
      "AWTARGET": 112.0,
      "AWTDIFF": 1.0,
      "AWLO": 85.0,
      "AWHI": 140.0,
      "AWU": "DAYS",
      "QSSEQ": 5040.0
    },
    {
      "STUDYID": "CDISCPILOT01",
      "SITEID": "701",
      "SITEGR1": "701",
      "USUBJID": "01-701-1028",
      "TRTSDT": 19558.0,
      "TRTEDT": 19737.0,
      "TRTP": "Xanomeline High Dose",
      "TRTPN": 81.0,
      "AGE": 71.0,
      "AGEGR1": "65-80",
      "AGEGR1N": 2.0,
      "RACE": "WHITE",
      "RACEN": 1.0,
      "SEX": "M",
      "ITTFL": "Y",
      "EFFFL": "Y",
      "COMP24FL": "Y",
      "AVISIT": "Week 24",
      "AVISITN": 24.0,
      "VISIT": "WEEK 24",
      "VISITNUM": 12.0,
      "ADY": 172.0,
      "ADT": 19729.0,
      "PARAM": "Maze Solution",
      "PARAMCD": "ACITM10",
      "PARAMN": 10.0,
      "AVAL": 5.0,
      "BASE": 4.0,
      "CHG": 1.0,
      "PCHG": 25.0,
      "ABLFL": "",
      "ANL01FL": "Y",
      "DTYPE": "",
      "AWRANGE": ">140",
      "AWTARGET": 168.0,
      "AWTDIFF": 4.0,
      "AWLO": 141.0,
      "AWHI": NaN,
      "AWU": "DAYS",
      "QSSEQ": 5055.0
    },
    {
      "STUDYID": "CDISCPILOT01",
      "SITEID": "701",
      "SITEGR1": "701",
      "USUBJID": "01-701-1028",
      "TRTSDT": 19558.0,
      "TRTEDT": 19737.0,
      "TRTP": "Xanomeline High Dose",
      "TRTPN": 81.0,
      "AGE": 71.0,
      "AGEGR1": "65-80",
      "AGEGR1N": 2.0,
      "RACE": "WHITE",
      "RACEN": 1.0,
      "SEX": "M",
      "ITTFL": "Y",
      "EFFFL": "Y",
      "COMP24FL": "Y",
      "AVISIT": "Baseline",
      "AVISITN": 5.397605346934028e-79,
      "VISIT": "BASELINE",
      "VISITNUM": 3.0,
      "ADY": 1.0,
      "ADT": 19558.0,
      "PARAM": "Spoken Language Ability",
      "PARAMCD": "ACITM11",
      "PARAMN": 11.0,
      "AVAL": 5.397605346934028e-79,
      "BASE": 5.397605346934028e-79,
      "CHG": NaN,
      "PCHG": NaN,
      "ABLFL": "Y",
      "ANL01FL": "Y",
      "DTYPE": "",
      "AWRANGE": "<=1",
      "AWTARGET": 1.0,
      "AWTDIFF": 5.397605346934028e-79,
      "AWLO": NaN,
      "AWHI": 1.0,
      "AWU": "DAYS",
      "QSSEQ": 5011.0
    },
    {
      "STUDYID": "CDISCPILOT01",
      "SITEID": "701",
      "SITEGR1": "701",
      "USUBJID": "01-701-1028",
      "TRTSDT": 19558.0,
      "TRTEDT": 19737.0,
      "TRTP": "Xanomeline High Dose",
      "TRTPN": 81.0,
      "AGE": 71.0,
      "AGEGR1": "65-80",
      "AGEGR1N": 2.0,
      "RACE": "WHITE",
      "RACEN": 1.0,
      "SEX": "M",
      "ITTFL": "Y",
      "EFFFL": "Y",
      "COMP24FL": "Y",
      "AVISIT": "Week 8",
      "AVISITN": 8.0,
      "VISIT": "WEEK 8",
      "VISITNUM": 8.0,
      "ADY": 54.0,
      "ADT": 19611.0,
      "PARAM": "Spoken Language Ability",
      "PARAMCD": "ACITM11",
      "PARAMN": 11.0,
      "AVAL": 5.397605346934028e-79,
      "BASE": 5.397605346934028e-79,
      "CHG": 5.397605346934028e-79,
      "PCHG": NaN,
      "ABLFL": "",
      "ANL01FL": "Y",
      "DTYPE": "",
      "AWRANGE": "2-84",
      "AWTARGET": 56.0,
      "AWTDIFF": 2.0,
      "AWLO": 2.0,
      "AWHI": 84.0,
      "AWU": "DAYS",
      "QSSEQ": 5026.0
    },
    {
      "STUDYID": "CDISCPILOT01",
      "SITEID": "701",
      "SITEGR1": "701",
      "USUBJID": "01-701-1028",
      "TRTSDT": 19558.0,
      "TRTEDT": 19737.0,
      "TRTP": "Xanomeline High Dose",
      "TRTPN": 81.0,
      "AGE": 71.0,
      "AGEGR1": "65-80",
      "AGEGR1N": 2.0,
      "RACE": "WHITE",
      "RACEN": 1.0,
      "SEX": "M",
      "ITTFL": "Y",
      "EFFFL": "Y",
      "COMP24FL": "Y",
      "AVISIT": "Week 16",
      "AVISITN": 16.0,
      "VISIT": "WEEK 16",
      "VISITNUM": 10.0,
      "ADY": 111.0,
      "ADT": 19668.0,
      "PARAM": "Spoken Language Ability",
      "PARAMCD": "ACITM11",
      "PARAMN": 11.0,
      "AVAL": 5.397605346934028e-79,
      "BASE": 5.397605346934028e-79,
      "CHG": 5.397605346934028e-79,
      "PCHG": NaN,
      "ABLFL": "",
      "ANL01FL": "Y",
      "DTYPE": "",
      "AWRANGE": "85-140",
      "AWTARGET": 112.0,
      "AWTDIFF": 1.0,
      "AWLO": 85.0,
      "AWHI": 140.0,
      "AWU": "DAYS",
      "QSSEQ": 5041.0
    },
    {
      "STUDYID": "CDISCPILOT01",
      "SITEID": "701",
      "SITEGR1": "701",
      "USUBJID": "01-701-1028",
      "TRTSDT": 19558.0,
      "TRTEDT": 19737.0,
      "TRTP": "Xanomeline High Dose",
      "TRTPN": 81.0,
      "AGE": 71.0,
      "AGEGR1": "65-80",
      "AGEGR1N": 2.0,
      "RACE": "WHITE",
      "RACEN": 1.0,
      "SEX": "M",
      "ITTFL": "Y",
      "EFFFL": "Y",
      "COMP24FL": "Y",
      "AVISIT": "Week 24",
      "AVISITN": 24.0,
      "VISIT": "WEEK 24",
      "VISITNUM": 12.0,
      "ADY": 172.0,
      "ADT": 19729.0,
      "PARAM": "Spoken Language Ability",
      "PARAMCD": "ACITM11",
      "PARAMN": 11.0,
      "AVAL": 5.397605346934028e-79,
      "BASE": 5.397605346934028e-79,
      "CHG": 5.397605346934028e-79,
      "PCHG": NaN,
      "ABLFL": "",
      "ANL01FL": "Y",
      "DTYPE": "",
      "AWRANGE": ">140",
      "AWTARGET": 168.0,
      "AWTDIFF": 4.0,
      "AWLO": 141.0,
      "AWHI": NaN,
      "AWU": "DAYS",
      "QSSEQ": 5056.0
    },
    {
      "STUDYID": "CDISCPILOT01",
      "SITEID": "701",
      "SITEGR1": "701",
      "USUBJID": "01-701-1028",
      "TRTSDT": 19558.0,
      "TRTEDT": 19737.0,
      "TRTP": "Xanomeline High Dose",
      "TRTPN": 81.0,
      "AGE": 71.0,
      "AGEGR1": "65-80",
      "AGEGR1N": 2.0,
      "RACE": "WHITE",
      "RACEN": 1.0,
      "SEX": "M",
      "ITTFL": "Y",
      "EFFFL": "Y",
      "COMP24FL": "Y",
      "AVISIT": "Baseline",
      "AVISITN": 5.397605346934028e-79,
      "VISIT": "BASELINE",
      "VISITNUM": 3.0,
      "ADY": 1.0,
      "ADT": 19558.0,
      "PARAM": "Comprehension Of Spoken Language",
      "PARAMCD": "ACITM12",
      "PARAMN": 12.0,
      "AVAL": 5.397605346934028e-79,
      "BASE": 5.397605346934028e-79,
      "CHG": NaN,
      "PCHG": NaN,
      "ABLFL": "Y",
      "ANL01FL": "Y",
      "DTYPE": "",
      "AWRANGE": "<=1",
      "AWTARGET": 1.0,
      "AWTDIFF": 5.397605346934028e-79,
      "AWLO": NaN,
      "AWHI": 1.0,
      "AWU": "DAYS",
      "QSSEQ": 5012.0
    },
    {
      "STUDYID": "CDISCPILOT01",
      "SITEID": "701",
      "SITEGR1": "701",
      "USUBJID": "01-701-1028",
      "TRTSDT": 19558.0,
      "TRTEDT": 19737.0,
      "TRTP": "Xanomeline High Dose",
      "TRTPN": 81.0,
      "AGE": 71.0,
      "AGEGR1": "65-80",
      "AGEGR1N": 2.0,
      "RACE": "WHITE",
      "RACEN": 1.0,
      "SEX": "M",
      "ITTFL": "Y",
      "EFFFL": "Y",
      "COMP24FL": "Y",
      "AVISIT": "Week 8",
      "AVISITN": 8.0,
      "VISIT": "WEEK 8",
      "VISITNUM": 8.0,
      "ADY": 54.0,
      "ADT": 19611.0,
      "PARAM": "Comprehension Of Spoken Language",
      "PARAMCD": "ACITM12",
      "PARAMN": 12.0,
      "AVAL": 5.397605346934028e-79,
      "BASE": 5.397605346934028e-79,
      "CHG": 5.397605346934028e-79,
      "PCHG": NaN,
      "ABLFL": "",
      "ANL01FL": "Y",
      "DTYPE": "",
      "AWRANGE": "2-84",
      "AWTARGET": 56.0,
      "AWTDIFF": 2.0,
      "AWLO": 2.0,
      "AWHI": 84.0,
      "AWU": "DAYS",
      "QSSEQ": 5027.0
    },
    {
      "STUDYID": "CDISCPILOT01",
      "SITEID": "701",
      "SITEGR1": "701",
      "USUBJID": "01-701-1028",
      "TRTSDT": 19558.0,
      "TRTEDT": 19737.0,
      "TRTP": "Xanomeline High Dose",
      "TRTPN": 81.0,
      "AGE": 71.0,
      "AGEGR1": "65-80",
      "AGEGR1N": 2.0,
      "RACE": "WHITE",
      "RACEN": 1.0,
      "SEX": "M",
      "ITTFL": "Y",
      "EFFFL": "Y",
      "COMP24FL": "Y",
      "AVISIT": "Week 16",
      "AVISITN": 16.0,
      "VISIT": "WEEK 16",
      "VISITNUM": 10.0,
      "ADY": 111.0,
      "ADT": 19668.0,
      "PARAM": "Comprehension Of Spoken Language",
      "PARAMCD": "ACITM12",
      "PARAMN": 12.0,
      "AVAL": 5.397605346934028e-79,
      "BASE": 5.397605346934028e-79,
      "CHG": 5.397605346934028e-79,
      "PCHG": NaN,
      "ABLFL": "",
      "ANL01FL": "Y",
      "DTYPE": "",
      "AWRANGE": "85-140",
      "AWTARGET": 112.0,
      "AWTDIFF": 1.0,
      "AWLO": 85.0,
      "AWHI": 140.0,
      "AWU": "DAYS",
      "QSSEQ": 5042.0
    },
    {
      "STUDYID": "CDISCPILOT01",
      "SITEID": "701",
      "SITEGR1": "701",
      "USUBJID": "01-701-1028",
      "TRTSDT": 19558.0,
      "TRTEDT": 19737.0,
      "TRTP": "Xanomeline High Dose",
      "TRTPN": 81.0,
      "AGE": 71.0,
      "AGEGR1": "65-80",
      "AGEGR1N": 2.0,
      "RACE": "WHITE",
      "RACEN": 1.0,
      "SEX": "M",
      "ITTFL": "Y",
      "EFFFL": "Y",
      "COMP24FL": "Y",
      "AVISIT": "Week 24",
      "AVISITN": 24.0,
      "VISIT": "WEEK 24",
      "VISITNUM": 12.0,
      "ADY": 172.0,
      "ADT": 19729.0,
      "PARAM": "Comprehension Of Spoken Language",
      "PARAMCD": "ACITM12",
      "PARAMN": 12.0,
      "AVAL": 5.397605346934028e-79,
      "BASE": 5.397605346934028e-79,
      "CHG": 5.397605346934028e-79,
      "PCHG": NaN,
      "ABLFL": "",
      "ANL01FL": "Y",
      "DTYPE": "",
      "AWRANGE": ">140",
      "AWTARGET": 168.0,
      "AWTDIFF": 4.0,
      "AWLO": 141.0,
      "AWHI": NaN,
      "AWU": "DAYS",
      "QSSEQ": 5057.0
    },
    {
      "STUDYID": "CDISCPILOT01",
      "SITEID": "701",
      "SITEGR1": "701",
      "USUBJID": "01-701-1028",
      "TRTSDT": 19558.0,
      "TRTEDT": 19737.0,
      "TRTP": "Xanomeline High Dose",
      "TRTPN": 81.0,
      "AGE": 71.0,
      "AGEGR1": "65-80",
      "AGEGR1N": 2.0,
      "RACE": "WHITE",
      "RACEN": 1.0,
      "SEX": "M",
      "ITTFL": "Y",
      "EFFFL": "Y",
      "COMP24FL": "Y",
      "AVISIT": "Baseline",
      "AVISITN": 5.397605346934028e-79,
      "VISIT": "BASELINE",
      "VISITNUM": 3.0,
      "ADY": 1.0,
      "ADT": 19558.0,
      "PARAM": "Word Finding Difficulty In Spontaneous S",
      "PARAMCD": "ACITM13",
      "PARAMN": 13.0,
      "AVAL": 5.397605346934028e-79,
      "BASE": 5.397605346934028e-79,
      "CHG": NaN,
      "PCHG": NaN,
      "ABLFL": "Y",
      "ANL01FL": "Y",
      "DTYPE": "",
      "AWRANGE": "<=1",
      "AWTARGET": 1.0,
      "AWTDIFF": 5.397605346934028e-79,
      "AWLO": NaN,
      "AWHI": 1.0,
      "AWU": "DAYS",
      "QSSEQ": 5013.0
    },
    {
      "STUDYID": "CDISCPILOT01",
      "SITEID": "701",
      "SITEGR1": "701",
      "USUBJID": "01-701-1028",
      "TRTSDT": 19558.0,
      "TRTEDT": 19737.0,
      "TRTP": "Xanomeline High Dose",
      "TRTPN": 81.0,
      "AGE": 71.0,
      "AGEGR1": "65-80",
      "AGEGR1N": 2.0,
      "RACE": "WHITE",
      "RACEN": 1.0,
      "SEX": "M",
      "ITTFL": "Y",
      "EFFFL": "Y",
      "COMP24FL": "Y",
      "AVISIT": "Week 8",
      "AVISITN": 8.0,
      "VISIT": "WEEK 8",
      "VISITNUM": 8.0,
      "ADY": 54.0,
      "ADT": 19611.0,
      "PARAM": "Word Finding Difficulty In Spontaneous S",
      "PARAMCD": "ACITM13",
      "PARAMN": 13.0,
      "AVAL": 5.397605346934028e-79,
      "BASE": 5.397605346934028e-79,
      "CHG": 5.397605346934028e-79,
      "PCHG": NaN,
      "ABLFL": "",
      "ANL01FL": "Y",
      "DTYPE": "",
      "AWRANGE": "2-84",
      "AWTARGET": 56.0,
      "AWTDIFF": 2.0,
      "AWLO": 2.0,
      "AWHI": 84.0,
      "AWU": "DAYS",
      "QSSEQ": 5028.0
    },
    {
      "STUDYID": "CDISCPILOT01",
      "SITEID": "701",
      "SITEGR1": "701",
      "USUBJID": "01-701-1028",
      "TRTSDT": 19558.0,
      "TRTEDT": 19737.0,
      "TRTP": "Xanomeline High Dose",
      "TRTPN": 81.0,
      "AGE": 71.0,
      "AGEGR1": "65-80",
      "AGEGR1N": 2.0,
      "RACE": "WHITE",
      "RACEN": 1.0,
      "SEX": "M",
      "ITTFL": "Y",
      "EFFFL": "Y",
      "COMP24FL": "Y",
      "AVISIT": "Week 16",
      "AVISITN": 16.0,
      "VISIT": "WEEK 16",
      "VISITNUM": 10.0,
      "ADY": 111.0,
      "ADT": 19668.0,
      "PARAM": "Word Finding Difficulty In Spontaneous S",
      "PARAMCD": "ACITM13",
      "PARAMN": 13.0,
      "AVAL": 5.397605346934028e-79,
      "BASE": 5.397605346934028e-79,
      "CHG": 5.397605346934028e-79,
      "PCHG": NaN,
      "ABLFL": "",
      "ANL01FL": "Y",
      "DTYPE": "",
      "AWRANGE": "85-140",
      "AWTARGET": 112.0,
      "AWTDIFF": 1.0,
      "AWLO": 85.0,
      "AWHI": 140.0,
      "AWU": "DAYS",
      "QSSEQ": 5043.0
    },
    {
      "STUDYID": "CDISCPILOT01",
      "SITEID": "701",
      "SITEGR1": "701",
      "USUBJID": "01-701-1028",
      "TRTSDT": 19558.0,
      "TRTEDT": 19737.0,
      "TRTP": "Xanomeline High Dose",
      "TRTPN": 81.0,
      "AGE": 71.0,
      "AGEGR1": "65-80",
      "AGEGR1N": 2.0,
      "RACE": "WHITE",
      "RACEN": 1.0,
      "SEX": "M",
      "ITTFL": "Y",
      "EFFFL": "Y",
      "COMP24FL": "Y",
      "AVISIT": "Week 24",
      "AVISITN": 24.0,
      "VISIT": "WEEK 24",
      "VISITNUM": 12.0,
      "ADY": 172.0,
      "ADT": 19729.0,
      "PARAM": "Word Finding Difficulty In Spontaneous S",
      "PARAMCD": "ACITM13",
      "PARAMN": 13.0,
      "AVAL": 5.397605346934028e-79,
      "BASE": 5.397605346934028e-79,
      "CHG": 5.397605346934028e-79,
      "PCHG": NaN,
      "ABLFL": "",
      "ANL01FL": "Y",
      "DTYPE": "",
      "AWRANGE": ">140",
      "AWTARGET": 168.0,
      "AWTDIFF": 4.0,
      "AWLO": 141.0,
      "AWHI": NaN,
      "AWU": "DAYS",
      "QSSEQ": 5058.0
    },
    {
      "STUDYID": "CDISCPILOT01",
      "SITEID": "701",
      "SITEGR1": "701",
      "USUBJID": "01-701-1028",
      "TRTSDT": 19558.0,
      "TRTEDT": 19737.0,
      "TRTP": "Xanomeline High Dose",
      "TRTPN": 81.0,
      "AGE": 71.0,
      "AGEGR1": "65-80",
      "AGEGR1N": 2.0,
      "RACE": "WHITE",
      "RACEN": 1.0,
      "SEX": "M",
      "ITTFL": "Y",
      "EFFFL": "Y",
      "COMP24FL": "Y",
      "AVISIT": "Baseline",
      "AVISITN": 5.397605346934028e-79,
      "VISIT": "BASELINE",
      "VISITNUM": 3.0,
      "ADY": 1.0,
      "ADT": 19558.0,
      "PARAM": "Recall Of Test Instructions",
      "PARAMCD": "ACITM14",
      "PARAMN": 14.0,
      "AVAL": 5.397605346934028e-79,
      "BASE": 5.397605346934028e-79,
      "CHG": NaN,
      "PCHG": NaN,
      "ABLFL": "Y",
      "ANL01FL": "Y",
      "DTYPE": "",
      "AWRANGE": "<=1",
      "AWTARGET": 1.0,
      "AWTDIFF": 5.397605346934028e-79,
      "AWLO": NaN,
      "AWHI": 1.0,
      "AWU": "DAYS",
      "QSSEQ": 5014.0
    },
    {
      "STUDYID": "CDISCPILOT01",
      "SITEID": "701",
      "SITEGR1": "701",
      "USUBJID": "01-701-1028",
      "TRTSDT": 19558.0,
      "TRTEDT": 19737.0,
      "TRTP": "Xanomeline High Dose",
      "TRTPN": 81.0,
      "AGE": 71.0,
      "AGEGR1": "65-80",
      "AGEGR1N": 2.0,
      "RACE": "WHITE",
      "RACEN": 1.0,
      "SEX": "M",
      "ITTFL": "Y",
      "EFFFL": "Y",
      "COMP24FL": "Y",
      "AVISIT": "Week 8",
      "AVISITN": 8.0,
      "VISIT": "WEEK 8",
      "VISITNUM": 8.0,
      "ADY": 54.0,
      "ADT": 19611.0,
      "PARAM": "Recall Of Test Instructions",
      "PARAMCD": "ACITM14",
      "PARAMN": 14.0,
      "AVAL": 5.397605346934028e-79,
      "BASE": 5.397605346934028e-79,
      "CHG": 5.397605346934028e-79,
      "PCHG": NaN,
      "ABLFL": "",
      "ANL01FL": "Y",
      "DTYPE": "",
      "AWRANGE": "2-84",
      "AWTARGET": 56.0,
      "AWTDIFF": 2.0,
      "AWLO": 2.0,
      "AWHI": 84.0,
      "AWU": "DAYS",
      "QSSEQ": 5029.0
    },
    {
      "STUDYID": "CDISCPILOT01",
      "SITEID": "701",
      "SITEGR1": "701",
      "USUBJID": "01-701-1028",
      "TRTSDT": 19558.0,
      "TRTEDT": 19737.0,
      "TRTP": "Xanomeline High Dose",
      "TRTPN": 81.0,
      "AGE": 71.0,
      "AGEGR1": "65-80",
      "AGEGR1N": 2.0,
      "RACE": "WHITE",
      "RACEN": 1.0,
      "SEX": "M",
      "ITTFL": "Y",
      "EFFFL": "Y",
      "COMP24FL": "Y",
      "AVISIT": "Week 16",
      "AVISITN": 16.0,
      "VISIT": "WEEK 16",
      "VISITNUM": 10.0,
      "ADY": 111.0,
      "ADT": 19668.0,
      "PARAM": "Recall Of Test Instructions",
      "PARAMCD": "ACITM14",
      "PARAMN": 14.0,
      "AVAL": 5.397605346934028e-79,
      "BASE": 5.397605346934028e-79,
      "CHG": 5.397605346934028e-79,
      "PCHG": NaN,
      "ABLFL": "",
      "ANL01FL": "Y",
      "DTYPE": "",
      "AWRANGE": "85-140",
      "AWTARGET": 112.0,
      "AWTDIFF": 1.0,
      "AWLO": 85.0,
      "AWHI": 140.0,
      "AWU": "DAYS",
      "QSSEQ": 5044.0
    },
    {
      "STUDYID": "CDISCPILOT01",
      "SITEID": "701",
      "SITEGR1": "701",
      "USUBJID": "01-701-1028",
      "TRTSDT": 19558.0,
      "TRTEDT": 19737.0,
      "TRTP": "Xanomeline High Dose",
      "TRTPN": 81.0,
      "AGE": 71.0,
      "AGEGR1": "65-80",
      "AGEGR1N": 2.0,
      "RACE": "WHITE",
      "RACEN": 1.0,
      "SEX": "M",
      "ITTFL": "Y",
      "EFFFL": "Y",
      "COMP24FL": "Y",
      "AVISIT": "Week 24",
      "AVISITN": 24.0,
      "VISIT": "WEEK 24",
      "VISITNUM": 12.0,
      "ADY": 172.0,
      "ADT": 19729.0,
      "PARAM": "Recall Of Test Instructions",
      "PARAMCD": "ACITM14",
      "PARAMN": 14.0,
      "AVAL": 5.397605346934028e-79,
      "BASE": 5.397605346934028e-79,
      "CHG": 5.397605346934028e-79,
      "PCHG": NaN,
      "ABLFL": "",
      "ANL01FL": "Y",
      "DTYPE": "",
      "AWRANGE": ">140",
      "AWTARGET": 168.0,
      "AWTDIFF": 4.0,
      "AWLO": 141.0,
      "AWHI": NaN,
      "AWU": "DAYS",
      "QSSEQ": 5059.0
    },
    {
      "STUDYID": "CDISCPILOT01",
      "SITEID": "701",
      "SITEGR1": "701",
      "USUBJID": "01-701-1028",
      "TRTSDT": 19558.0,
      "TRTEDT": 19737.0,
      "TRTP": "Xanomeline High Dose",
      "TRTPN": 81.0,
      "AGE": 71.0,
      "AGEGR1": "65-80",
      "AGEGR1N": 2.0,
      "RACE": "WHITE",
      "RACEN": 1.0,
      "SEX": "M",
      "ITTFL": "Y",
      "EFFFL": "Y",
      "COMP24FL": "Y",
      "AVISIT": "Baseline",
      "AVISITN": 5.397605346934028e-79,
      "VISIT": "BASELINE",
      "VISITNUM": 3.0,
      "ADY": 1.0,
      "ADT": 19558.0,
      "PARAM": "Adas-Cog(11) Subscore",
      "PARAMCD": "ACTOT",
      "PARAMN": 15.0,
      "AVAL": 3.0,
      "BASE": 3.0,
      "CHG": NaN,
      "PCHG": NaN,
      "ABLFL": "Y",
      "ANL01FL": "Y",
      "DTYPE": "",
      "AWRANGE": "<=1",
      "AWTARGET": 1.0,
      "AWTDIFF": 5.397605346934028e-79,
      "AWLO": NaN,
      "AWHI": 1.0,
      "AWU": "DAYS",
      "QSSEQ": 5015.0
    },
    {
      "STUDYID": "CDISCPILOT01",
      "SITEID": "701",
      "SITEGR1": "701",
      "USUBJID": "01-701-1028",
      "TRTSDT": 19558.0,
      "TRTEDT": 19737.0,
      "TRTP": "Xanomeline High Dose",
      "TRTPN": 81.0,
      "AGE": 71.0,
      "AGEGR1": "65-80",
      "AGEGR1N": 2.0,
      "RACE": "WHITE",
      "RACEN": 1.0,
      "SEX": "M",
      "ITTFL": "Y",
      "EFFFL": "Y",
      "COMP24FL": "Y",
      "AVISIT": "Week 8",
      "AVISITN": 8.0,
      "VISIT": "WEEK 8",
      "VISITNUM": 8.0,
      "ADY": 54.0,
      "ADT": 19611.0,
      "PARAM": "Adas-Cog(11) Subscore",
      "PARAMCD": "ACTOT",
      "PARAMN": 15.0,
      "AVAL": 2.0,
      "BASE": 3.0,
      "CHG": -1.0,
      "PCHG": -33.33333333333333,
      "ABLFL": "",
      "ANL01FL": "Y",
      "DTYPE": "",
      "AWRANGE": "2-84",
      "AWTARGET": 56.0,
      "AWTDIFF": 2.0,
      "AWLO": 2.0,
      "AWHI": 84.0,
      "AWU": "DAYS",
      "QSSEQ": 5030.0
    },
    {
      "STUDYID": "CDISCPILOT01",
      "SITEID": "701",
      "SITEGR1": "701",
      "USUBJID": "01-701-1028",
      "TRTSDT": 19558.0,
      "TRTEDT": 19737.0,
      "TRTP": "Xanomeline High Dose",
      "TRTPN": 81.0,
      "AGE": 71.0,
      "AGEGR1": "65-80",
      "AGEGR1N": 2.0,
      "RACE": "WHITE",
      "RACEN": 1.0,
      "SEX": "M",
      "ITTFL": "Y",
      "EFFFL": "Y",
      "COMP24FL": "Y",
      "AVISIT": "Week 16",
      "AVISITN": 16.0,
      "VISIT": "WEEK 16",
      "VISITNUM": 10.0,
      "ADY": 111.0,
      "ADT": 19668.0,
      "PARAM": "Adas-Cog(11) Subscore",
      "PARAMCD": "ACTOT",
      "PARAMN": 15.0,
      "AVAL": 4.0,
      "BASE": 3.0,
      "CHG": 1.0,
      "PCHG": 33.33333333333333,
      "ABLFL": "",
      "ANL01FL": "Y",
      "DTYPE": "",
      "AWRANGE": "85-140",
      "AWTARGET": 112.0,
      "AWTDIFF": 1.0,
      "AWLO": 85.0,
      "AWHI": 140.0,
      "AWU": "DAYS",
      "QSSEQ": 5045.0
    },
    {
      "STUDYID": "CDISCPILOT01",
      "SITEID": "701",
      "SITEGR1": "701",
      "USUBJID": "01-701-1028",
      "TRTSDT": 19558.0,
      "TRTEDT": 19737.0,
      "TRTP": "Xanomeline High Dose",
      "TRTPN": 81.0,
      "AGE": 71.0,
      "AGEGR1": "65-80",
      "AGEGR1N": 2.0,
      "RACE": "WHITE",
      "RACEN": 1.0,
      "SEX": "M",
      "ITTFL": "Y",
      "EFFFL": "Y",
      "COMP24FL": "Y",
      "AVISIT": "Week 24",
      "AVISITN": 24.0,
      "VISIT": "WEEK 24",
      "VISITNUM": 12.0,
      "ADY": 172.0,
      "ADT": 19729.0,
      "PARAM": "Adas-Cog(11) Subscore",
      "PARAMCD": "ACTOT",
      "PARAMN": 15.0,
      "AVAL": 3.0,
      "BASE": 3.0,
      "CHG": 5.397605346934028e-79,
      "PCHG": 5.397605346934028e-79,
      "ABLFL": "",
      "ANL01FL": "Y",
      "DTYPE": "",
      "AWRANGE": ">140",
      "AWTARGET": 168.0,
      "AWTDIFF": 4.0,
      "AWLO": 141.0,
      "AWHI": NaN,
      "AWU": "DAYS",
      "QSSEQ": 5060.0
    },
    {
      "STUDYID": "CDISCPILOT01",
      "SITEID": "701",
      "SITEGR1": "701",
      "USUBJID": "01-701-1033",
      "TRTSDT": 19800.0,
      "TRTEDT": 19813.0,
      "TRTP": "Xanomeline Low Dose",
      "TRTPN": 54.0,
      "AGE": 74.0,
      "AGEGR1": "65-80",
      "AGEGR1N": 2.0,
      "RACE": "WHITE",
      "RACEN": 1.0,
      "SEX": "M",
      "ITTFL": "Y",
      "EFFFL": "Y",
      "COMP24FL": "N",
      "AVISIT": "Baseline",
      "AVISITN": 5.397605346934028e-79,
      "VISIT": "BASELINE",
      "VISITNUM": 3.0,
      "ADY": 1.0,
      "ADT": 19800.0,
      "PARAM": "Word Recall Task",
      "PARAMCD": "ACITM01",
      "PARAMN": 1.0,
      "AVAL": 5.0,
      "BASE": 5.0,
      "CHG": NaN,
      "PCHG": NaN,
      "ABLFL": "Y",
      "ANL01FL": "Y",
      "DTYPE": "",
      "AWRANGE": "<=1",
      "AWTARGET": 1.0,
      "AWTDIFF": 5.397605346934028e-79,
      "AWLO": NaN,
      "AWHI": 1.0,
      "AWU": "DAYS",
      "QSSEQ": 5001.0
    },
    {
      "STUDYID": "CDISCPILOT01",
      "SITEID": "701",
      "SITEGR1": "701",
      "USUBJID": "01-701-1033",
      "TRTSDT": 19800.0,
      "TRTEDT": 19813.0,
      "TRTP": "Xanomeline Low Dose",
      "TRTPN": 54.0,
      "AGE": 74.0,
      "AGEGR1": "65-80",
      "AGEGR1N": 2.0,
      "RACE": "WHITE",
      "RACEN": 1.0,
      "SEX": "M",
      "ITTFL": "Y",
      "EFFFL": "Y",
      "COMP24FL": "N",
      "AVISIT": "Week 8",
      "AVISITN": 8.0,
      "VISIT": "WEEK 4",
      "VISITNUM": 5.0,
      "ADY": 28.0,
      "ADT": 19827.0,
      "PARAM": "Word Recall Task",
      "PARAMCD": "ACITM01",
      "PARAMN": 1.0,
      "AVAL": 5.0,
      "BASE": 5.0,
      "CHG": 5.397605346934028e-79,
      "PCHG": 5.397605346934028e-79,
      "ABLFL": "",
      "ANL01FL": "Y",
      "DTYPE": "",
      "AWRANGE": "2-84",
      "AWTARGET": 56.0,
      "AWTDIFF": 28.0,
      "AWLO": 2.0,
      "AWHI": 84.0,
      "AWU": "DAYS",
      "QSSEQ": 5016.0
    },
    {
      "STUDYID": "CDISCPILOT01",
      "SITEID": "701",
      "SITEGR1": "701",
      "USUBJID": "01-701-1033",
      "TRTSDT": 19800.0,
      "TRTEDT": 19813.0,
      "TRTP": "Xanomeline Low Dose",
      "TRTPN": 54.0,
      "AGE": 74.0,
      "AGEGR1": "65-80",
      "AGEGR1N": 2.0,
      "RACE": "WHITE",
      "RACEN": 1.0,
      "SEX": "M",
      "ITTFL": "Y",
      "EFFFL": "Y",
      "COMP24FL": "N",
      "AVISIT": "Week 24",
      "AVISITN": 24.0,
      "VISIT": "RETRIEVAL",
      "VISITNUM": 201.0,
      "ADY": 182.0,
      "ADT": 19981.0,
      "PARAM": "Word Recall Task",
      "PARAMCD": "ACITM01",
      "PARAMN": 1.0,
      "AVAL": 6.0,
      "BASE": 5.0,
      "CHG": 1.0,
      "PCHG": 20.0,
      "ABLFL": "",
      "ANL01FL": "Y",
      "DTYPE": "",
      "AWRANGE": ">140",
      "AWTARGET": 168.0,
      "AWTDIFF": 14.0,
      "AWLO": 141.0,
      "AWHI": NaN,
      "AWU": "DAYS",
      "QSSEQ": 5031.0
    },
    {
      "STUDYID": "CDISCPILOT01",
      "SITEID": "701",
      "SITEGR1": "701",
      "USUBJID": "01-701-1033",
      "TRTSDT": 19800.0,
      "TRTEDT": 19813.0,
      "TRTP": "Xanomeline Low Dose",
      "TRTPN": 54.0,
      "AGE": 74.0,
      "AGEGR1": "65-80",
      "AGEGR1N": 2.0,
      "RACE": "WHITE",
      "RACEN": 1.0,
      "SEX": "M",
      "ITTFL": "Y",
      "EFFFL": "Y",
      "COMP24FL": "N",
      "AVISIT": "Baseline",
      "AVISITN": 5.397605346934028e-79,
      "VISIT": "BASELINE",
      "VISITNUM": 3.0,
      "ADY": 1.0,
      "ADT": 19800.0,
      "PARAM": "Naming Objects And Fingers (Refer To 5 C",
      "PARAMCD": "ACITM02",
      "PARAMN": 2.0,
      "AVAL": 5.397605346934028e-79,
      "BASE": 5.397605346934028e-79,
      "CHG": NaN,
      "PCHG": NaN,
      "ABLFL": "Y",
      "ANL01FL": "Y",
      "DTYPE": "",
      "AWRANGE": "<=1",
      "AWTARGET": 1.0,
      "AWTDIFF": 5.397605346934028e-79,
      "AWLO": NaN,
      "AWHI": 1.0,
      "AWU": "DAYS",
      "QSSEQ": 5002.0
    },
    {
      "STUDYID": "CDISCPILOT01",
      "SITEID": "701",
      "SITEGR1": "701",
      "USUBJID": "01-701-1033",
      "TRTSDT": 19800.0,
      "TRTEDT": 19813.0,
      "TRTP": "Xanomeline Low Dose",
      "TRTPN": 54.0,
      "AGE": 74.0,
      "AGEGR1": "65-80",
      "AGEGR1N": 2.0,
      "RACE": "WHITE",
      "RACEN": 1.0,
      "SEX": "M",
      "ITTFL": "Y",
      "EFFFL": "Y",
      "COMP24FL": "N",
      "AVISIT": "Week 8",
      "AVISITN": 8.0,
      "VISIT": "WEEK 4",
      "VISITNUM": 5.0,
      "ADY": 28.0,
      "ADT": 19827.0,
      "PARAM": "Naming Objects And Fingers (Refer To 5 C",
      "PARAMCD": "ACITM02",
      "PARAMN": 2.0,
      "AVAL": 5.397605346934028e-79,
      "BASE": 5.397605346934028e-79,
      "CHG": 5.397605346934028e-79,
      "PCHG": NaN,
      "ABLFL": "",
      "ANL01FL": "Y",
      "DTYPE": "",
      "AWRANGE": "2-84",
      "AWTARGET": 56.0,
      "AWTDIFF": 28.0,
      "AWLO": 2.0,
      "AWHI": 84.0,
      "AWU": "DAYS",
      "QSSEQ": 5017.0
    },
    {
      "STUDYID": "CDISCPILOT01",
      "SITEID": "701",
      "SITEGR1": "701",
      "USUBJID": "01-701-1033",
      "TRTSDT": 19800.0,
      "TRTEDT": 19813.0,
      "TRTP": "Xanomeline Low Dose",
      "TRTPN": 54.0,
      "AGE": 74.0,
      "AGEGR1": "65-80",
      "AGEGR1N": 2.0,
      "RACE": "WHITE",
      "RACEN": 1.0,
      "SEX": "M",
      "ITTFL": "Y",
      "EFFFL": "Y",
      "COMP24FL": "N",
      "AVISIT": "Week 24",
      "AVISITN": 24.0,
      "VISIT": "RETRIEVAL",
      "VISITNUM": 201.0,
      "ADY": 182.0,
      "ADT": 19981.0,
      "PARAM": "Naming Objects And Fingers (Refer To 5 C",
      "PARAMCD": "ACITM02",
      "PARAMN": 2.0,
      "AVAL": 5.397605346934028e-79,
      "BASE": 5.397605346934028e-79,
      "CHG": 5.397605346934028e-79,
      "PCHG": NaN,
      "ABLFL": "",
      "ANL01FL": "Y",
      "DTYPE": "",
      "AWRANGE": ">140",
      "AWTARGET": 168.0,
      "AWTDIFF": 14.0,
      "AWLO": 141.0,
      "AWHI": NaN,
      "AWU": "DAYS",
      "QSSEQ": 5032.0
    },
    {
      "STUDYID": "CDISCPILOT01",
      "SITEID": "701",
      "SITEGR1": "701",
      "USUBJID": "01-701-1033",
      "TRTSDT": 19800.0,
      "TRTEDT": 19813.0,
      "TRTP": "Xanomeline Low Dose",
      "TRTPN": 54.0,
      "AGE": 74.0,
      "AGEGR1": "65-80",
      "AGEGR1N": 2.0,
      "RACE": "WHITE",
      "RACEN": 1.0,
      "SEX": "M",
      "ITTFL": "Y",
      "EFFFL": "Y",
      "COMP24FL": "N",
      "AVISIT": "Baseline",
      "AVISITN": 5.397605346934028e-79,
      "VISIT": "BASELINE",
      "VISITNUM": 3.0,
      "ADY": 1.0,
      "ADT": 19800.0,
      "PARAM": "Delayed Word Recall",
      "PARAMCD": "ACITM03",
      "PARAMN": 3.0,
      "AVAL": 6.0,
      "BASE": 6.0,
      "CHG": NaN,
      "PCHG": NaN,
      "ABLFL": "Y",
      "ANL01FL": "Y",
      "DTYPE": "",
      "AWRANGE": "<=1",
      "AWTARGET": 1.0,
      "AWTDIFF": 5.397605346934028e-79,
      "AWLO": NaN,
      "AWHI": 1.0,
      "AWU": "DAYS",
      "QSSEQ": 5003.0
    },
    {
      "STUDYID": "CDISCPILOT01",
      "SITEID": "701",
      "SITEGR1": "701",
      "USUBJID": "01-701-1033",
      "TRTSDT": 19800.0,
      "TRTEDT": 19813.0,
      "TRTP": "Xanomeline Low Dose",
      "TRTPN": 54.0,
      "AGE": 74.0,
      "AGEGR1": "65-80",
      "AGEGR1N": 2.0,
      "RACE": "WHITE",
      "RACEN": 1.0,
      "SEX": "M",
      "ITTFL": "Y",
      "EFFFL": "Y",
      "COMP24FL": "N",
      "AVISIT": "Week 8",
      "AVISITN": 8.0,
      "VISIT": "WEEK 4",
      "VISITNUM": 5.0,
      "ADY": 28.0,
      "ADT": 19827.0,
      "PARAM": "Delayed Word Recall",
      "PARAMCD": "ACITM03",
      "PARAMN": 3.0,
      "AVAL": 3.0,
      "BASE": 6.0,
      "CHG": -3.0,
      "PCHG": -50.0,
      "ABLFL": "",
      "ANL01FL": "Y",
      "DTYPE": "",
      "AWRANGE": "2-84",
      "AWTARGET": 56.0,
      "AWTDIFF": 28.0,
      "AWLO": 2.0,
      "AWHI": 84.0,
      "AWU": "DAYS",
      "QSSEQ": 5018.0
    },
    {
      "STUDYID": "CDISCPILOT01",
      "SITEID": "701",
      "SITEGR1": "701",
      "USUBJID": "01-701-1033",
      "TRTSDT": 19800.0,
      "TRTEDT": 19813.0,
      "TRTP": "Xanomeline Low Dose",
      "TRTPN": 54.0,
      "AGE": 74.0,
      "AGEGR1": "65-80",
      "AGEGR1N": 2.0,
      "RACE": "WHITE",
      "RACEN": 1.0,
      "SEX": "M",
      "ITTFL": "Y",
      "EFFFL": "Y",
      "COMP24FL": "N",
      "AVISIT": "Week 24",
      "AVISITN": 24.0,
      "VISIT": "RETRIEVAL",
      "VISITNUM": 201.0,
      "ADY": 182.0,
      "ADT": 19981.0,
      "PARAM": "Delayed Word Recall",
      "PARAMCD": "ACITM03",
      "PARAMN": 3.0,
      "AVAL": 6.0,
      "BASE": 6.0,
      "CHG": 5.397605346934028e-79,
      "PCHG": 5.397605346934028e-79,
      "ABLFL": "",
      "ANL01FL": "Y",
      "DTYPE": "",
      "AWRANGE": ">140",
      "AWTARGET": 168.0,
      "AWTDIFF": 14.0,
      "AWLO": 141.0,
      "AWHI": NaN,
      "AWU": "DAYS",
      "QSSEQ": 5033.0
    },
    {
      "STUDYID": "CDISCPILOT01",
      "SITEID": "701",
      "SITEGR1": "701",
      "USUBJID": "01-701-1033",
      "TRTSDT": 19800.0,
      "TRTEDT": 19813.0,
      "TRTP": "Xanomeline Low Dose",
      "TRTPN": 54.0,
      "AGE": 74.0,
      "AGEGR1": "65-80",
      "AGEGR1N": 2.0,
      "RACE": "WHITE",
      "RACEN": 1.0,
      "SEX": "M",
      "ITTFL": "Y",
      "EFFFL": "Y",
      "COMP24FL": "N",
      "AVISIT": "Baseline",
      "AVISITN": 5.397605346934028e-79,
      "VISIT": "BASELINE",
      "VISITNUM": 3.0,
      "ADY": 1.0,
      "ADT": 19800.0,
      "PARAM": "Commands",
      "PARAMCD": "ACITM04",
      "PARAMN": 4.0,
      "AVAL": 5.397605346934028e-79,
      "BASE": 5.397605346934028e-79,
      "CHG": NaN,
      "PCHG": NaN,
      "ABLFL": "Y",
      "ANL01FL": "Y",
      "DTYPE": "",
      "AWRANGE": "<=1",
      "AWTARGET": 1.0,
      "AWTDIFF": 5.397605346934028e-79,
      "AWLO": NaN,
      "AWHI": 1.0,
      "AWU": "DAYS",
      "QSSEQ": 5004.0
    },
    {
      "STUDYID": "CDISCPILOT01",
      "SITEID": "701",
      "SITEGR1": "701",
      "USUBJID": "01-701-1033",
      "TRTSDT": 19800.0,
      "TRTEDT": 19813.0,
      "TRTP": "Xanomeline Low Dose",
      "TRTPN": 54.0,
      "AGE": 74.0,
      "AGEGR1": "65-80",
      "AGEGR1N": 2.0,
      "RACE": "WHITE",
      "RACEN": 1.0,
      "SEX": "M",
      "ITTFL": "Y",
      "EFFFL": "Y",
      "COMP24FL": "N",
      "AVISIT": "Week 8",
      "AVISITN": 8.0,
      "VISIT": "WEEK 4",
      "VISITNUM": 5.0,
      "ADY": 28.0,
      "ADT": 19827.0,
      "PARAM": "Commands",
      "PARAMCD": "ACITM04",
      "PARAMN": 4.0,
      "AVAL": 5.397605346934028e-79,
      "BASE": 5.397605346934028e-79,
      "CHG": 5.397605346934028e-79,
      "PCHG": NaN,
      "ABLFL": "",
      "ANL01FL": "Y",
      "DTYPE": "",
      "AWRANGE": "2-84",
      "AWTARGET": 56.0,
      "AWTDIFF": 28.0,
      "AWLO": 2.0,
      "AWHI": 84.0,
      "AWU": "DAYS",
      "QSSEQ": 5019.0
    },
    {
      "STUDYID": "CDISCPILOT01",
      "SITEID": "701",
      "SITEGR1": "701",
      "USUBJID": "01-701-1033",
      "TRTSDT": 19800.0,
      "TRTEDT": 19813.0,
      "TRTP": "Xanomeline Low Dose",
      "TRTPN": 54.0,
      "AGE": 74.0,
      "AGEGR1": "65-80",
      "AGEGR1N": 2.0,
      "RACE": "WHITE",
      "RACEN": 1.0,
      "SEX": "M",
      "ITTFL": "Y",
      "EFFFL": "Y",
      "COMP24FL": "N",
      "AVISIT": "Week 24",
      "AVISITN": 24.0,
      "VISIT": "RETRIEVAL",
      "VISITNUM": 201.0,
      "ADY": 182.0,
      "ADT": 19981.0,
      "PARAM": "Commands",
      "PARAMCD": "ACITM04",
      "PARAMN": 4.0,
      "AVAL": 5.397605346934028e-79,
      "BASE": 5.397605346934028e-79,
      "CHG": 5.397605346934028e-79,
      "PCHG": NaN,
      "ABLFL": "",
      "ANL01FL": "Y",
      "DTYPE": "",
      "AWRANGE": ">140",
      "AWTARGET": 168.0,
      "AWTDIFF": 14.0,
      "AWLO": 141.0,
      "AWHI": NaN,
      "AWU": "DAYS",
      "QSSEQ": 5034.0
    },
    {
      "STUDYID": "CDISCPILOT01",
      "SITEID": "701",
      "SITEGR1": "701",
      "USUBJID": "01-701-1033",
      "TRTSDT": 19800.0,
      "TRTEDT": 19813.0,
      "TRTP": "Xanomeline Low Dose",
      "TRTPN": 54.0,
      "AGE": 74.0,
      "AGEGR1": "65-80",
      "AGEGR1N": 2.0,
      "RACE": "WHITE",
      "RACEN": 1.0,
      "SEX": "M",
      "ITTFL": "Y",
      "EFFFL": "Y",
      "COMP24FL": "N",
      "AVISIT": "Baseline",
      "AVISITN": 5.397605346934028e-79,
      "VISIT": "BASELINE",
      "VISITNUM": 3.0,
      "ADY": 1.0,
      "ADT": 19800.0,
      "PARAM": "Constructional Praxis",
      "PARAMCD": "ACITM05",
      "PARAMN": 5.0,
      "AVAL": 1.0,
      "BASE": 1.0,
      "CHG": NaN,
      "PCHG": NaN,
      "ABLFL": "Y",
      "ANL01FL": "Y",
      "DTYPE": "",
      "AWRANGE": "<=1",
      "AWTARGET": 1.0,
      "AWTDIFF": 5.397605346934028e-79,
      "AWLO": NaN,
      "AWHI": 1.0,
      "AWU": "DAYS",
      "QSSEQ": 5005.0
    },
    {
      "STUDYID": "CDISCPILOT01",
      "SITEID": "701",
      "SITEGR1": "701",
      "USUBJID": "01-701-1033",
      "TRTSDT": 19800.0,
      "TRTEDT": 19813.0,
      "TRTP": "Xanomeline Low Dose",
      "TRTPN": 54.0,
      "AGE": 74.0,
      "AGEGR1": "65-80",
      "AGEGR1N": 2.0,
      "RACE": "WHITE",
      "RACEN": 1.0,
      "SEX": "M",
      "ITTFL": "Y",
      "EFFFL": "Y",
      "COMP24FL": "N",
      "AVISIT": "Week 8",
      "AVISITN": 8.0,
      "VISIT": "WEEK 4",
      "VISITNUM": 5.0,
      "ADY": 28.0,
      "ADT": 19827.0,
      "PARAM": "Constructional Praxis",
      "PARAMCD": "ACITM05",
      "PARAMN": 5.0,
      "AVAL": 1.0,
      "BASE": 1.0,
      "CHG": 5.397605346934028e-79,
      "PCHG": 5.397605346934028e-79,
      "ABLFL": "",
      "ANL01FL": "Y",
      "DTYPE": "",
      "AWRANGE": "2-84",
      "AWTARGET": 56.0,
      "AWTDIFF": 28.0,
      "AWLO": 2.0,
      "AWHI": 84.0,
      "AWU": "DAYS",
      "QSSEQ": 5020.0
    },
    {
      "STUDYID": "CDISCPILOT01",
      "SITEID": "701",
      "SITEGR1": "701",
      "USUBJID": "01-701-1033",
      "TRTSDT": 19800.0,
      "TRTEDT": 19813.0,
      "TRTP": "Xanomeline Low Dose",
      "TRTPN": 54.0,
      "AGE": 74.0,
      "AGEGR1": "65-80",
      "AGEGR1N": 2.0,
      "RACE": "WHITE",
      "RACEN": 1.0,
      "SEX": "M",
      "ITTFL": "Y",
      "EFFFL": "Y",
      "COMP24FL": "N",
      "AVISIT": "Week 24",
      "AVISITN": 24.0,
      "VISIT": "RETRIEVAL",
      "VISITNUM": 201.0,
      "ADY": 182.0,
      "ADT": 19981.0,
      "PARAM": "Constructional Praxis",
      "PARAMCD": "ACITM05",
      "PARAMN": 5.0,
      "AVAL": 5.397605346934028e-79,
      "BASE": 1.0,
      "CHG": -1.0,
      "PCHG": -100.0,
      "ABLFL": "",
      "ANL01FL": "Y",
      "DTYPE": "",
      "AWRANGE": ">140",
      "AWTARGET": 168.0,
      "AWTDIFF": 14.0,
      "AWLO": 141.0,
      "AWHI": NaN,
      "AWU": "DAYS",
      "QSSEQ": 5035.0
    },
    {
      "STUDYID": "CDISCPILOT01",
      "SITEID": "701",
      "SITEGR1": "701",
      "USUBJID": "01-701-1033",
      "TRTSDT": 19800.0,
      "TRTEDT": 19813.0,
      "TRTP": "Xanomeline Low Dose",
      "TRTPN": 54.0,
      "AGE": 74.0,
      "AGEGR1": "65-80",
      "AGEGR1N": 2.0,
      "RACE": "WHITE",
      "RACEN": 1.0,
      "SEX": "M",
      "ITTFL": "Y",
      "EFFFL": "Y",
      "COMP24FL": "N",
      "AVISIT": "Baseline",
      "AVISITN": 5.397605346934028e-79,
      "VISIT": "BASELINE",
      "VISITNUM": 3.0,
      "ADY": 1.0,
      "ADT": 19800.0,
      "PARAM": "Ideational Praxis",
      "PARAMCD": "ACITM06",
      "PARAMN": 6.0,
      "AVAL": 5.397605346934028e-79,
      "BASE": 5.397605346934028e-79,
      "CHG": NaN,
      "PCHG": NaN,
      "ABLFL": "Y",
      "ANL01FL": "Y",
      "DTYPE": "",
      "AWRANGE": "<=1",
      "AWTARGET": 1.0,
      "AWTDIFF": 5.397605346934028e-79,
      "AWLO": NaN,
      "AWHI": 1.0,
      "AWU": "DAYS",
      "QSSEQ": 5006.0
    },
    {
      "STUDYID": "CDISCPILOT01",
      "SITEID": "701",
      "SITEGR1": "701",
      "USUBJID": "01-701-1033",
      "TRTSDT": 19800.0,
      "TRTEDT": 19813.0,
      "TRTP": "Xanomeline Low Dose",
      "TRTPN": 54.0,
      "AGE": 74.0,
      "AGEGR1": "65-80",
      "AGEGR1N": 2.0,
      "RACE": "WHITE",
      "RACEN": 1.0,
      "SEX": "M",
      "ITTFL": "Y",
      "EFFFL": "Y",
      "COMP24FL": "N",
      "AVISIT": "Week 8",
      "AVISITN": 8.0,
      "VISIT": "WEEK 4",
      "VISITNUM": 5.0,
      "ADY": 28.0,
      "ADT": 19827.0,
      "PARAM": "Ideational Praxis",
      "PARAMCD": "ACITM06",
      "PARAMN": 6.0,
      "AVAL": 5.397605346934028e-79,
      "BASE": 5.397605346934028e-79,
      "CHG": 5.397605346934028e-79,
      "PCHG": NaN,
      "ABLFL": "",
      "ANL01FL": "Y",
      "DTYPE": "",
      "AWRANGE": "2-84",
      "AWTARGET": 56.0,
      "AWTDIFF": 28.0,
      "AWLO": 2.0,
      "AWHI": 84.0,
      "AWU": "DAYS",
      "QSSEQ": 5021.0
    },
    {
      "STUDYID": "CDISCPILOT01",
      "SITEID": "701",
      "SITEGR1": "701",
      "USUBJID": "01-701-1033",
      "TRTSDT": 19800.0,
      "TRTEDT": 19813.0,
      "TRTP": "Xanomeline Low Dose",
      "TRTPN": 54.0,
      "AGE": 74.0,
      "AGEGR1": "65-80",
      "AGEGR1N": 2.0,
      "RACE": "WHITE",
      "RACEN": 1.0,
      "SEX": "M",
      "ITTFL": "Y",
      "EFFFL": "Y",
      "COMP24FL": "N",
      "AVISIT": "Week 24",
      "AVISITN": 24.0,
      "VISIT": "RETRIEVAL",
      "VISITNUM": 201.0,
      "ADY": 182.0,
      "ADT": 19981.0,
      "PARAM": "Ideational Praxis",
      "PARAMCD": "ACITM06",
      "PARAMN": 6.0,
      "AVAL": 5.397605346934028e-79,
      "BASE": 5.397605346934028e-79,
      "CHG": 5.397605346934028e-79,
      "PCHG": NaN,
      "ABLFL": "",
      "ANL01FL": "Y",
      "DTYPE": "",
      "AWRANGE": ">140",
      "AWTARGET": 168.0,
      "AWTDIFF": 14.0,
      "AWLO": 141.0,
      "AWHI": NaN,
      "AWU": "DAYS",
      "QSSEQ": 5036.0
    },
    {
      "STUDYID": "CDISCPILOT01",
      "SITEID": "701",
      "SITEGR1": "701",
      "USUBJID": "01-701-1033",
      "TRTSDT": 19800.0,
      "TRTEDT": 19813.0,
      "TRTP": "Xanomeline Low Dose",
      "TRTPN": 54.0,
      "AGE": 74.0,
      "AGEGR1": "65-80",
      "AGEGR1N": 2.0,
      "RACE": "WHITE",
      "RACEN": 1.0,
      "SEX": "M",
      "ITTFL": "Y",
      "EFFFL": "Y",
      "COMP24FL": "N",
      "AVISIT": "Baseline",
      "AVISITN": 5.397605346934028e-79,
      "VISIT": "BASELINE",
      "VISITNUM": 3.0,
      "ADY": 1.0,
      "ADT": 19800.0,
      "PARAM": "Orientation",
      "PARAMCD": "ACITM07",
      "PARAMN": 7.0,
      "AVAL": 5.397605346934028e-79,
      "BASE": 5.397605346934028e-79,
      "CHG": NaN,
      "PCHG": NaN,
      "ABLFL": "Y",
      "ANL01FL": "Y",
      "DTYPE": "",
      "AWRANGE": "<=1",
      "AWTARGET": 1.0,
      "AWTDIFF": 5.397605346934028e-79,
      "AWLO": NaN,
      "AWHI": 1.0,
      "AWU": "DAYS",
      "QSSEQ": 5007.0
    },
    {
      "STUDYID": "CDISCPILOT01",
      "SITEID": "701",
      "SITEGR1": "701",
      "USUBJID": "01-701-1033",
      "TRTSDT": 19800.0,
      "TRTEDT": 19813.0,
      "TRTP": "Xanomeline Low Dose",
      "TRTPN": 54.0,
      "AGE": 74.0,
      "AGEGR1": "65-80",
      "AGEGR1N": 2.0,
      "RACE": "WHITE",
      "RACEN": 1.0,
      "SEX": "M",
      "ITTFL": "Y",
      "EFFFL": "Y",
      "COMP24FL": "N",
      "AVISIT": "Week 8",
      "AVISITN": 8.0,
      "VISIT": "WEEK 4",
      "VISITNUM": 5.0,
      "ADY": 28.0,
      "ADT": 19827.0,
      "PARAM": "Orientation",
      "PARAMCD": "ACITM07",
      "PARAMN": 7.0,
      "AVAL": 5.397605346934028e-79,
      "BASE": 5.397605346934028e-79,
      "CHG": 5.397605346934028e-79,
      "PCHG": NaN,
      "ABLFL": "",
      "ANL01FL": "Y",
      "DTYPE": "",
      "AWRANGE": "2-84",
      "AWTARGET": 56.0,
      "AWTDIFF": 28.0,
      "AWLO": 2.0,
      "AWHI": 84.0,
      "AWU": "DAYS",
      "QSSEQ": 5022.0
    },
    {
      "STUDYID": "CDISCPILOT01",
      "SITEID": "701",
      "SITEGR1": "701",
      "USUBJID": "01-701-1033",
      "TRTSDT": 19800.0,
      "TRTEDT": 19813.0,
      "TRTP": "Xanomeline Low Dose",
      "TRTPN": 54.0,
      "AGE": 74.0,
      "AGEGR1": "65-80",
      "AGEGR1N": 2.0,
      "RACE": "WHITE",
      "RACEN": 1.0,
      "SEX": "M",
      "ITTFL": "Y",
      "EFFFL": "Y",
      "COMP24FL": "N",
      "AVISIT": "Week 24",
      "AVISITN": 24.0,
      "VISIT": "RETRIEVAL",
      "VISITNUM": 201.0,
      "ADY": 182.0,
      "ADT": 19981.0,
      "PARAM": "Orientation",
      "PARAMCD": "ACITM07",
      "PARAMN": 7.0,
      "AVAL": 5.397605346934028e-79,
      "BASE": 5.397605346934028e-79,
      "CHG": 5.397605346934028e-79,
      "PCHG": NaN,
      "ABLFL": "",
      "ANL01FL": "Y",
      "DTYPE": "",
      "AWRANGE": ">140",
      "AWTARGET": 168.0,
      "AWTDIFF": 14.0,
      "AWLO": 141.0,
      "AWHI": NaN,
      "AWU": "DAYS",
      "QSSEQ": 5037.0
    },
    {
      "STUDYID": "CDISCPILOT01",
      "SITEID": "701",
      "SITEGR1": "701",
      "USUBJID": "01-701-1033",
      "TRTSDT": 19800.0,
      "TRTEDT": 19813.0,
      "TRTP": "Xanomeline Low Dose",
      "TRTPN": 54.0,
      "AGE": 74.0,
      "AGEGR1": "65-80",
      "AGEGR1N": 2.0,
      "RACE": "WHITE",
      "RACEN": 1.0,
      "SEX": "M",
      "ITTFL": "Y",
      "EFFFL": "Y",
      "COMP24FL": "N",
      "AVISIT": "Baseline",
      "AVISITN": 5.397605346934028e-79,
      "VISIT": "BASELINE",
      "VISITNUM": 3.0,
      "ADY": 1.0,
      "ADT": 19800.0,
      "PARAM": "Word Recognition",
      "PARAMCD": "ACITM08",
      "PARAMN": 8.0,
      "AVAL": 1.0,
      "BASE": 1.0,
      "CHG": NaN,
      "PCHG": NaN,
      "ABLFL": "Y",
      "ANL01FL": "Y",
      "DTYPE": "",
      "AWRANGE": "<=1",
      "AWTARGET": 1.0,
      "AWTDIFF": 5.397605346934028e-79,
      "AWLO": NaN,
      "AWHI": 1.0,
      "AWU": "DAYS",
      "QSSEQ": 5008.0
    },
    {
      "STUDYID": "CDISCPILOT01",
      "SITEID": "701",
      "SITEGR1": "701",
      "USUBJID": "01-701-1033",
      "TRTSDT": 19800.0,
      "TRTEDT": 19813.0,
      "TRTP": "Xanomeline Low Dose",
      "TRTPN": 54.0,
      "AGE": 74.0,
      "AGEGR1": "65-80",
      "AGEGR1N": 2.0,
      "RACE": "WHITE",
      "RACEN": 1.0,
      "SEX": "M",
      "ITTFL": "Y",
      "EFFFL": "Y",
      "COMP24FL": "N",
      "AVISIT": "Week 8",
      "AVISITN": 8.0,
      "VISIT": "WEEK 4",
      "VISITNUM": 5.0,
      "ADY": 28.0,
      "ADT": 19827.0,
      "PARAM": "Word Recognition",
      "PARAMCD": "ACITM08",
      "PARAMN": 8.0,
      "AVAL": 2.0,
      "BASE": 1.0,
      "CHG": 1.0,
      "PCHG": 100.0,
      "ABLFL": "",
      "ANL01FL": "Y",
      "DTYPE": "",
      "AWRANGE": "2-84",
      "AWTARGET": 56.0,
      "AWTDIFF": 28.0,
      "AWLO": 2.0,
      "AWHI": 84.0,
      "AWU": "DAYS",
      "QSSEQ": 5023.0
    },
    {
      "STUDYID": "CDISCPILOT01",
      "SITEID": "701",
      "SITEGR1": "701",
      "USUBJID": "01-701-1033",
      "TRTSDT": 19800.0,
      "TRTEDT": 19813.0,
      "TRTP": "Xanomeline Low Dose",
      "TRTPN": 54.0,
      "AGE": 74.0,
      "AGEGR1": "65-80",
      "AGEGR1N": 2.0,
      "RACE": "WHITE",
      "RACEN": 1.0,
      "SEX": "M",
      "ITTFL": "Y",
      "EFFFL": "Y",
      "COMP24FL": "N",
      "AVISIT": "Week 24",
      "AVISITN": 24.0,
      "VISIT": "RETRIEVAL",
      "VISITNUM": 201.0,
      "ADY": 182.0,
      "ADT": 19981.0,
      "PARAM": "Word Recognition",
      "PARAMCD": "ACITM08",
      "PARAMN": 8.0,
      "AVAL": 1.0,
      "BASE": 1.0,
      "CHG": 5.397605346934028e-79,
      "PCHG": 5.397605346934028e-79,
      "ABLFL": "",
      "ANL01FL": "Y",
      "DTYPE": "",
      "AWRANGE": ">140",
      "AWTARGET": 168.0,
      "AWTDIFF": 14.0,
      "AWLO": 141.0,
      "AWHI": NaN,
      "AWU": "DAYS",
      "QSSEQ": 5038.0
    },
    {
      "STUDYID": "CDISCPILOT01",
      "SITEID": "701",
      "SITEGR1": "701",
      "USUBJID": "01-701-1033",
      "TRTSDT": 19800.0,
      "TRTEDT": 19813.0,
      "TRTP": "Xanomeline Low Dose",
      "TRTPN": 54.0,
      "AGE": 74.0,
      "AGEGR1": "65-80",
      "AGEGR1N": 2.0,
      "RACE": "WHITE",
      "RACEN": 1.0,
      "SEX": "M",
      "ITTFL": "Y",
      "EFFFL": "Y",
      "COMP24FL": "N",
      "AVISIT": "Baseline",
      "AVISITN": 5.397605346934028e-79,
      "VISIT": "BASELINE",
      "VISITNUM": 3.0,
      "ADY": 1.0,
      "ADT": 19800.0,
      "PARAM": "Attention/Visual Search Task",
      "PARAMCD": "ACITM09",
      "PARAMN": 9.0,
      "AVAL": 30.0,
      "BASE": 30.0,
      "CHG": NaN,
      "PCHG": NaN,
      "ABLFL": "Y",
      "ANL01FL": "Y",
      "DTYPE": "",
      "AWRANGE": "<=1",
      "AWTARGET": 1.0,
      "AWTDIFF": 5.397605346934028e-79,
      "AWLO": NaN,
      "AWHI": 1.0,
      "AWU": "DAYS",
      "QSSEQ": 5009.0
    },
    {
      "STUDYID": "CDISCPILOT01",
      "SITEID": "701",
      "SITEGR1": "701",
      "USUBJID": "01-701-1033",
      "TRTSDT": 19800.0,
      "TRTEDT": 19813.0,
      "TRTP": "Xanomeline Low Dose",
      "TRTPN": 54.0,
      "AGE": 74.0,
      "AGEGR1": "65-80",
      "AGEGR1N": 2.0,
      "RACE": "WHITE",
      "RACEN": 1.0,
      "SEX": "M",
      "ITTFL": "Y",
      "EFFFL": "Y",
      "COMP24FL": "N",
      "AVISIT": "Week 8",
      "AVISITN": 8.0,
      "VISIT": "WEEK 4",
      "VISITNUM": 5.0,
      "ADY": 28.0,
      "ADT": 19827.0,
      "PARAM": "Attention/Visual Search Task",
      "PARAMCD": "ACITM09",
      "PARAMN": 9.0,
      "AVAL": 24.0,
      "BASE": 30.0,
      "CHG": -6.0,
      "PCHG": -20.0,
      "ABLFL": "",
      "ANL01FL": "Y",
      "DTYPE": "",
      "AWRANGE": "2-84",
      "AWTARGET": 56.0,
      "AWTDIFF": 28.0,
      "AWLO": 2.0,
      "AWHI": 84.0,
      "AWU": "DAYS",
      "QSSEQ": 5024.0
    },
    {
      "STUDYID": "CDISCPILOT01",
      "SITEID": "701",
      "SITEGR1": "701",
      "USUBJID": "01-701-1033",
      "TRTSDT": 19800.0,
      "TRTEDT": 19813.0,
      "TRTP": "Xanomeline Low Dose",
      "TRTPN": 54.0,
      "AGE": 74.0,
      "AGEGR1": "65-80",
      "AGEGR1N": 2.0,
      "RACE": "WHITE",
      "RACEN": 1.0,
      "SEX": "M",
      "ITTFL": "Y",
      "EFFFL": "Y",
      "COMP24FL": "N",
      "AVISIT": "Week 24",
      "AVISITN": 24.0,
      "VISIT": "RETRIEVAL",
      "VISITNUM": 201.0,
      "ADY": 182.0,
      "ADT": 19981.0,
      "PARAM": "Attention/Visual Search Task",
      "PARAMCD": "ACITM09",
      "PARAMN": 9.0,
      "AVAL": 27.0,
      "BASE": 30.0,
      "CHG": -3.0,
      "PCHG": -10.0,
      "ABLFL": "",
      "ANL01FL": "Y",
      "DTYPE": "",
      "AWRANGE": ">140",
      "AWTARGET": 168.0,
      "AWTDIFF": 14.0,
      "AWLO": 141.0,
      "AWHI": NaN,
      "AWU": "DAYS",
      "QSSEQ": 5039.0
    },
    {
      "STUDYID": "CDISCPILOT01",
      "SITEID": "701",
      "SITEGR1": "701",
      "USUBJID": "01-701-1033",
      "TRTSDT": 19800.0,
      "TRTEDT": 19813.0,
      "TRTP": "Xanomeline Low Dose",
      "TRTPN": 54.0,
      "AGE": 74.0,
      "AGEGR1": "65-80",
      "AGEGR1N": 2.0,
      "RACE": "WHITE",
      "RACEN": 1.0,
      "SEX": "M",
      "ITTFL": "Y",
      "EFFFL": "Y",
      "COMP24FL": "N",
      "AVISIT": "Baseline",
      "AVISITN": 5.397605346934028e-79,
      "VISIT": "BASELINE",
      "VISITNUM": 3.0,
      "ADY": 1.0,
      "ADT": 19800.0,
      "PARAM": "Maze Solution",
      "PARAMCD": "ACITM10",
      "PARAMN": 10.0,
      "AVAL": 7.0,
      "BASE": 7.0,
      "CHG": NaN,
      "PCHG": NaN,
      "ABLFL": "Y",
      "ANL01FL": "Y",
      "DTYPE": "",
      "AWRANGE": "<=1",
      "AWTARGET": 1.0,
      "AWTDIFF": 5.397605346934028e-79,
      "AWLO": NaN,
      "AWHI": 1.0,
      "AWU": "DAYS",
      "QSSEQ": 5010.0
    },
    {
      "STUDYID": "CDISCPILOT01",
      "SITEID": "701",
      "SITEGR1": "701",
      "USUBJID": "01-701-1033",
      "TRTSDT": 19800.0,
      "TRTEDT": 19813.0,
      "TRTP": "Xanomeline Low Dose",
      "TRTPN": 54.0,
      "AGE": 74.0,
      "AGEGR1": "65-80",
      "AGEGR1N": 2.0,
      "RACE": "WHITE",
      "RACEN": 1.0,
      "SEX": "M",
      "ITTFL": "Y",
      "EFFFL": "Y",
      "COMP24FL": "N",
      "AVISIT": "Week 8",
      "AVISITN": 8.0,
      "VISIT": "WEEK 4",
      "VISITNUM": 5.0,
      "ADY": 28.0,
      "ADT": 19827.0,
      "PARAM": "Maze Solution",
      "PARAMCD": "ACITM10",
      "PARAMN": 10.0,
      "AVAL": 6.0,
      "BASE": 7.0,
      "CHG": -1.0,
      "PCHG": -14.285714285714285,
      "ABLFL": "",
      "ANL01FL": "Y",
      "DTYPE": "",
      "AWRANGE": "2-84",
      "AWTARGET": 56.0,
      "AWTDIFF": 28.0,
      "AWLO": 2.0,
      "AWHI": 84.0,
      "AWU": "DAYS",
      "QSSEQ": 5025.0
    },
    {
      "STUDYID": "CDISCPILOT01",
      "SITEID": "701",
      "SITEGR1": "701",
      "USUBJID": "01-701-1033",
      "TRTSDT": 19800.0,
      "TRTEDT": 19813.0,
      "TRTP": "Xanomeline Low Dose",
      "TRTPN": 54.0,
      "AGE": 74.0,
      "AGEGR1": "65-80",
      "AGEGR1N": 2.0,
      "RACE": "WHITE",
      "RACEN": 1.0,
      "SEX": "M",
      "ITTFL": "Y",
      "EFFFL": "Y",
      "COMP24FL": "N",
      "AVISIT": "Week 24",
      "AVISITN": 24.0,
      "VISIT": "RETRIEVAL",
      "VISITNUM": 201.0,
      "ADY": 182.0,
      "ADT": 19981.0,
      "PARAM": "Maze Solution",
      "PARAMCD": "ACITM10",
      "PARAMN": 10.0,
      "AVAL": 4.0,
      "BASE": 7.0,
      "CHG": -3.0,
      "PCHG": -42.857142857142854,
      "ABLFL": "",
      "ANL01FL": "Y",
      "DTYPE": "",
      "AWRANGE": ">140",
      "AWTARGET": 168.0,
      "AWTDIFF": 14.0,
      "AWLO": 141.0,
      "AWHI": NaN,
      "AWU": "DAYS",
      "QSSEQ": 5040.0
    },
    {
      "STUDYID": "CDISCPILOT01",
      "SITEID": "701",
      "SITEGR1": "701",
      "USUBJID": "01-701-1033",
      "TRTSDT": 19800.0,
      "TRTEDT": 19813.0,
      "TRTP": "Xanomeline Low Dose",
      "TRTPN": 54.0,
      "AGE": 74.0,
      "AGEGR1": "65-80",
      "AGEGR1N": 2.0,
      "RACE": "WHITE",
      "RACEN": 1.0,
      "SEX": "M",
      "ITTFL": "Y",
      "EFFFL": "Y",
      "COMP24FL": "N",
      "AVISIT": "Baseline",
      "AVISITN": 5.397605346934028e-79,
      "VISIT": "BASELINE",
      "VISITNUM": 3.0,
      "ADY": 1.0,
      "ADT": 19800.0,
      "PARAM": "Spoken Language Ability",
      "PARAMCD": "ACITM11",
      "PARAMN": 11.0,
      "AVAL": 5.397605346934028e-79,
      "BASE": 5.397605346934028e-79,
      "CHG": NaN,
      "PCHG": NaN,
      "ABLFL": "Y",
      "ANL01FL": "Y",
      "DTYPE": "",
      "AWRANGE": "<=1",
      "AWTARGET": 1.0,
      "AWTDIFF": 5.397605346934028e-79,
      "AWLO": NaN,
      "AWHI": 1.0,
      "AWU": "DAYS",
      "QSSEQ": 5011.0
    },
    {
      "STUDYID": "CDISCPILOT01",
      "SITEID": "701",
      "SITEGR1": "701",
      "USUBJID": "01-701-1033",
      "TRTSDT": 19800.0,
      "TRTEDT": 19813.0,
      "TRTP": "Xanomeline Low Dose",
      "TRTPN": 54.0,
      "AGE": 74.0,
      "AGEGR1": "65-80",
      "AGEGR1N": 2.0,
      "RACE": "WHITE",
      "RACEN": 1.0,
      "SEX": "M",
      "ITTFL": "Y",
      "EFFFL": "Y",
      "COMP24FL": "N",
      "AVISIT": "Week 8",
      "AVISITN": 8.0,
      "VISIT": "WEEK 4",
      "VISITNUM": 5.0,
      "ADY": 28.0,
      "ADT": 19827.0,
      "PARAM": "Spoken Language Ability",
      "PARAMCD": "ACITM11",
      "PARAMN": 11.0,
      "AVAL": 5.397605346934028e-79,
      "BASE": 5.397605346934028e-79,
      "CHG": 5.397605346934028e-79,
      "PCHG": NaN,
      "ABLFL": "",
      "ANL01FL": "Y",
      "DTYPE": "",
      "AWRANGE": "2-84",
      "AWTARGET": 56.0,
      "AWTDIFF": 28.0,
      "AWLO": 2.0,
      "AWHI": 84.0,
      "AWU": "DAYS",
      "QSSEQ": 5026.0
    },
    {
      "STUDYID": "CDISCPILOT01",
      "SITEID": "701",
      "SITEGR1": "701",
      "USUBJID": "01-701-1033",
      "TRTSDT": 19800.0,
      "TRTEDT": 19813.0,
      "TRTP": "Xanomeline Low Dose",
      "TRTPN": 54.0,
      "AGE": 74.0,
      "AGEGR1": "65-80",
      "AGEGR1N": 2.0,
      "RACE": "WHITE",
      "RACEN": 1.0,
      "SEX": "M",
      "ITTFL": "Y",
      "EFFFL": "Y",
      "COMP24FL": "N",
      "AVISIT": "Week 24",
      "AVISITN": 24.0,
      "VISIT": "RETRIEVAL",
      "VISITNUM": 201.0,
      "ADY": 182.0,
      "ADT": 19981.0,
      "PARAM": "Spoken Language Ability",
      "PARAMCD": "ACITM11",
      "PARAMN": 11.0,
      "AVAL": 5.397605346934028e-79,
      "BASE": 5.397605346934028e-79,
      "CHG": 5.397605346934028e-79,
      "PCHG": NaN,
      "ABLFL": "",
      "ANL01FL": "Y",
      "DTYPE": "",
      "AWRANGE": ">140",
      "AWTARGET": 168.0,
      "AWTDIFF": 14.0,
      "AWLO": 141.0,
      "AWHI": NaN,
      "AWU": "DAYS",
      "QSSEQ": 5041.0
    },
    {
      "STUDYID": "CDISCPILOT01",
      "SITEID": "701",
      "SITEGR1": "701",
      "USUBJID": "01-701-1033",
      "TRTSDT": 19800.0,
      "TRTEDT": 19813.0,
      "TRTP": "Xanomeline Low Dose",
      "TRTPN": 54.0,
      "AGE": 74.0,
      "AGEGR1": "65-80",
      "AGEGR1N": 2.0,
      "RACE": "WHITE",
      "RACEN": 1.0,
      "SEX": "M",
      "ITTFL": "Y",
      "EFFFL": "Y",
      "COMP24FL": "N",
      "AVISIT": "Baseline",
      "AVISITN": 5.397605346934028e-79,
      "VISIT": "BASELINE",
      "VISITNUM": 3.0,
      "ADY": 1.0,
      "ADT": 19800.0,
      "PARAM": "Comprehension Of Spoken Language",
      "PARAMCD": "ACITM12",
      "PARAMN": 12.0,
      "AVAL": 5.397605346934028e-79,
      "BASE": 5.397605346934028e-79,
      "CHG": NaN,
      "PCHG": NaN,
      "ABLFL": "Y",
      "ANL01FL": "Y",
      "DTYPE": "",
      "AWRANGE": "<=1",
      "AWTARGET": 1.0,
      "AWTDIFF": 5.397605346934028e-79,
      "AWLO": NaN,
      "AWHI": 1.0,
      "AWU": "DAYS",
      "QSSEQ": 5012.0
    },
    {
      "STUDYID": "CDISCPILOT01",
      "SITEID": "701",
      "SITEGR1": "701",
      "USUBJID": "01-701-1033",
      "TRTSDT": 19800.0,
      "TRTEDT": 19813.0,
      "TRTP": "Xanomeline Low Dose",
      "TRTPN": 54.0,
      "AGE": 74.0,
      "AGEGR1": "65-80",
      "AGEGR1N": 2.0,
      "RACE": "WHITE",
      "RACEN": 1.0,
      "SEX": "M",
      "ITTFL": "Y",
      "EFFFL": "Y",
      "COMP24FL": "N",
      "AVISIT": "Week 8",
      "AVISITN": 8.0,
      "VISIT": "WEEK 4",
      "VISITNUM": 5.0,
      "ADY": 28.0,
      "ADT": 19827.0,
      "PARAM": "Comprehension Of Spoken Language",
      "PARAMCD": "ACITM12",
      "PARAMN": 12.0,
      "AVAL": 5.397605346934028e-79,
      "BASE": 5.397605346934028e-79,
      "CHG": 5.397605346934028e-79,
      "PCHG": NaN,
      "ABLFL": "",
      "ANL01FL": "Y",
      "DTYPE": "",
      "AWRANGE": "2-84",
      "AWTARGET": 56.0,
      "AWTDIFF": 28.0,
      "AWLO": 2.0,
