{
  "name": "ADAE",
  "total_rows": 1191,
  "unique_subjects": 225,
  "columns": [
    {
      "name": "STUDYID",
      "type": "string"
    },
    {
      "name": "SITEID",
      "type": "string"
    },
    {
      "name": "USUBJID",
      "type": "string"
    },
    {
      "name": "TRTA",
      "type": "string"
    },
    {
      "name": "TRTAN",
      "type": "number"
    },
    {
      "name": "AGE",
      "type": "number"
    },
    {
      "name": "AGEGR1",
      "type": "string"
    },
    {
      "name": "AGEGR1N",
      "type": "number"
    },
    {
      "name": "RACE",
      "type": "string"
    },
    {
      "name": "RACEN",
      "type": "number"
    },
    {
      "name": "SEX",
      "type": "string"
    },
    {
      "name": "SAFFL",
      "type": "string"
    },
    {
      "name": "TRTSDT",
      "type": "number"
    },
    {
      "name": "TRTEDT",
      "type": "number"
    },
    {
      "name": "ASTDT",
      "type": "number"
    },
    {
      "name": "ASTDTF",
      "type": "string"
    },
    {
      "name": "ASTDY",
      "type": "number"
    },
    {
      "name": "AENDT",
      "type": "number"
    },
    {
      "name": "AENDY",
      "type": "number"
    },
    {
      "name": "ADURN",
      "type": "number"
    },
    {
      "name": "ADURU",
      "type": "string"
    },
    {
      "name": "AETERM",
      "type": "string"
    },
    {
      "name": "AELLT",
      "type": "string"
    },
    {
      "name": "AELLTCD",
      "type": "string"
    },
    {
      "name": "AEDECOD",
      "type": "string"
    },
    {
      "name": "AEPTCD",
      "type": "string"
    },
    {
      "name": "AEHLT",
      "type": "string"
    },
    {
      "name": "AEHLTCD",
      "type": "string"
    },
    {
      "name": "AEHLGT",
      "type": "string"
    },
    {
      "name": "AEHLGTCD",
      "type": "string"
    },
    {
      "name": "AEBODSYS",
      "type": "string"
    },
    {
      "name": "AESOC",
      "type": "string"
    },
    {
      "name": "AESOCCD",
      "type": "string"
    },
    {
      "name": "AESEV",
      "type": "string"
    },
    {
      "name": "AESER",
      "type": "string"
    },
    {
      "name": "AESCAN",
      "type": "string"
    },
    {
      "name": "AESCONG",
      "type": "string"
    },
    {
      "name": "AESDISAB",
      "type": "string"
    },
    {
      "name": "AESDTH",
      "type": "string"
    },
    {
      "name": "AESHOSP",
      "type": "string"
    },
    {
      "name": "AESLIFE",
      "type": "string"
    },
    {
      "name": "AESOD",
      "type": "string"
    },
    {
      "name": "AEREL",
      "type": "string"
    },
    {
      "name": "AEACN",
      "type": "string"
    },
    {
      "name": "AEOUT",
      "type": "string"
    },
    {
      "name": "AESEQ",
      "type": "number"
    },
    {
      "name": "TRTEMFL",
      "type": "string"
    },
    {
      "name": "AOCCFL",
      "type": "string"
    },
    {
      "name": "AOCCSFL",
      "type": "string"
    },
    {
      "name": "AOCCPFL",
      "type": "string"
    },
    {
      "name": "AOCC02FL",
      "type": "string"
    },
    {
      "name": "AOCC03FL",
      "type": "string"
    },
    {
      "name": "AOCC04FL",
      "type": "string"
    },
    {
      "name": "CQ01NAM",
      "type": "string"
    },
    {
      "name": "AOCC01FL",
      "type": "string"
    }
  ],
  "rows": [
    {
      "STUDYID": "CDISCPILOT01",
      "SITEID": "701",
      "USUBJID": "01-701-1015",
      "TRTA": "Placebo",
      "TRTAN": 5.397605346934028e-79,
      "AGE": 63.0,
      "AGEGR1": "<65",
      "AGEGR1N": 1.0,
      "RACE": "WHITE",
      "RACEN": 1.0,
      "SEX": "F",
      "SAFFL": "Y",
      "TRTSDT": 19725.0,
      "TRTEDT": 19906.0,
      "ASTDT": 19726.0,
      "ASTDTF": "",
      "ASTDY": 2.0,
      "AENDT": NaN,
      "AENDY": NaN,
      "ADURN": NaN,
      "ADURU": "",
      "AETERM": "APPLICATION SITE ERYTHEMA",
      "AELLT": "APPLICATION SITE REDNESS",
      "AELLTCD": null,
      "AEDECOD": "APPLICATION SITE ERYTHEMA",
      "AEPTCD": null,
      "AEHLT": "HLT_0617",
      "AEHLTCD": null,
      "AEHLGT": "HLGT_0152",
      "AEHLGTCD": null,
      "AEBODSYS": "GENERAL DISORDERS AND ADMINISTRATION SITE CONDITIONS",
      "AESOC": "GENERAL DISORDERS AND ADMINISTRATION SITE CONDITIONS",
      "AESOCCD": null,
      "AESEV": "MILD",
      "AESER": "N",
      "AESCAN": "N",
      "AESCONG": "N",
      "AESDISAB": "N",
      "AESDTH": "N",
      "AESHOSP": "N",
      "AESLIFE": "N",
      "AESOD": "N",
      "AEREL": "PROBABLE",
      "AEACN": "",
      "AEOUT": "NOT RECOVERED/NOT RESOLVED",
      "AESEQ": 1.0,
      "TRTEMFL": "Y",
      "AOCCFL": "Y",
      "AOCCSFL": "Y",
      "AOCCPFL": "Y",
      "AOCC02FL": "",
      "AOCC03FL": "",
      "AOCC04FL": "",
      "CQ01NAM": "DERMATOLOGIC EVENTS",
      "AOCC01FL": "Y"
    },
    {
      "STUDYID": "CDISCPILOT01",
      "SITEID": "701",
      "USUBJID": "01-701-1015",
      "TRTA": "Placebo",
      "TRTAN": 5.397605346934028e-79,
      "AGE": 63.0,
      "AGEGR1": "<65",
      "AGEGR1N": 1.0,
      "RACE": "WHITE",
      "RACEN": 1.0,
      "SEX": "F",
      "SAFFL": "Y",
      "TRTSDT": 19725.0,
      "TRTEDT": 19906.0,
      "ASTDT": 19726.0,
      "ASTDTF": "",
      "ASTDY": 2.0,
      "AENDT": NaN,
      "AENDY": NaN,
      "ADURN": NaN,
      "ADURU": "",
      "AETERM": "APPLICATION SITE PRURITUS",
      "AELLT": "APPLICATION SITE ITCHING",
      "AELLTCD": null,
      "AEDECOD": "APPLICATION SITE PRURITUS",
      "AEPTCD": null,
      "AEHLT": "HLT_0317",
      "AEHLTCD": null,
      "AEHLGT": "HLGT_0338",
      "AEHLGTCD": null,
      "AEBODSYS": "GENERAL DISORDERS AND ADMINISTRATION SITE CONDITIONS",
      "AESOC": "GENERAL DISORDERS AND ADMINISTRATION SITE CONDITIONS",
      "AESOCCD": null,
      "AESEV": "MILD",
      "AESER": "N",
      "AESCAN": "N",
      "AESCONG": "N",
      "AESDISAB": "N",
      "AESDTH": "N",
      "AESHOSP": "N",
      "AESLIFE": "N",
      "AESOD": "N",
      "AEREL": "PROBABLE",
      "AEACN": "",
      "AEOUT": "NOT RECOVERED/NOT RESOLVED",
      "AESEQ": 2.0,
      "TRTEMFL": "Y",
      "AOCCFL": "",
      "AOCCSFL": "",
      "AOCCPFL": "Y",
      "AOCC02FL": "",
      "AOCC03FL": "",
      "AOCC04FL": "",
      "CQ01NAM": "DERMATOLOGIC EVENTS",
      "AOCC01FL": ""
    },
    {
      "STUDYID": "CDISCPILOT01",
      "SITEID": "701",
      "USUBJID": "01-701-1015",
      "TRTA": "Placebo",
      "TRTAN": 5.397605346934028e-79,
      "AGE": 63.0,
      "AGEGR1": "<65",
      "AGEGR1N": 1.0,
      "RACE": "WHITE",
      "RACEN": 1.0,
      "SEX": "F",
      "SAFFL": "Y",
      "TRTSDT": 19725.0,
      "TRTEDT": 19906.0,
      "ASTDT": 19732.0,
      "ASTDTF": "",
      "ASTDY": 8.0,
      "AENDT": 19734.0,
      "AENDY": 10.0,
      "ADURN": 3.0,
      "ADURU": "DAY",
      "AETERM": "DIARRHOEA",
      "AELLT": "DIARRHEA",
      "AELLTCD": null,
      "AEDECOD": "DIARRHOEA",
      "AEPTCD": null,
      "AEHLT": "HLT_0148",
      "AEHLTCD": null,
      "AEHLGT": "HLGT_0588",
      "AEHLGTCD": null,
      "AEBODSYS": "GASTROINTESTINAL DISORDERS",
      "AESOC": "GASTROINTESTINAL DISORDERS",
      "AESOCCD": null,
      "AESEV": "MILD",
      "AESER": "N",
      "AESCAN": "N",
      "AESCONG": "N",
      "AESDISAB": "N",
      "AESDTH": "N",
      "AESHOSP": "N",
      "AESLIFE": "N",
      "AESOD": "N",
      "AEREL": "REMOTE",
      "AEACN": "",
      "AEOUT": "RECOVERED/RESOLVED",
      "AESEQ": 3.0,
      "TRTEMFL": "Y",
      "AOCCFL": "",
      "AOCCSFL": "Y",
      "AOCCPFL": "Y",
      "AOCC02FL": "",
      "AOCC03FL": "",
      "AOCC04FL": "",
      "CQ01NAM": "",
      "AOCC01FL": ""
    },
    {
      "STUDYID": "CDISCPILOT01",
      "SITEID": "701",
      "USUBJID": "01-701-1023",
      "TRTA": "Placebo",
      "TRTAN": 5.397605346934028e-79,
      "AGE": 64.0,
      "AGEGR1": "<65",
      "AGEGR1N": 1.0,
      "RACE": "WHITE",
      "RACEN": 1.0,
      "SEX": "M",
      "SAFFL": "Y",
      "TRTSDT": 19210.0,
      "TRTEDT": 19237.0,
      "ASTDT": 19212.0,
      "ASTDTF": "",
      "ASTDY": 3.0,
      "AENDT": 19235.0,
      "AENDY": 26.0,
      "ADURN": 24.0,
      "ADURU": "DAY",
      "AETERM": "ERYTHEMA",
      "AELLT": "ERYTHEMA",
      "AELLTCD": null,
      "AEDECOD": "ERYTHEMA",
      "AEPTCD": null,
      "AEHLT": "HLT_0284",
      "AEHLTCD": null,
      "AEHLGT": "HLGT_0192",
      "AEHLGTCD": null,
      "AEBODSYS": "SKIN AND SUBCUTANEOUS TISSUE DISORDERS",
      "AESOC": "SKIN AND SUBCUTANEOUS TISSUE DISORDERS",
      "AESOCCD": null,
      "AESEV": "MILD",
      "AESER": "N",
      "AESCAN": "N",
      "AESCONG": "N",
      "AESDISAB": "N",
      "AESDTH": "N",
      "AESHOSP": "N",
      "AESLIFE": "N",
      "AESOD": "N",
      "AEREL": "POSSIBLE",
      "AEACN": "",
      "AEOUT": "NOT RECOVERED/NOT RESOLVED",
      "AESEQ": 1.0,
      "TRTEMFL": "Y",
      "AOCCFL": "Y",
      "AOCCSFL": "Y",
      "AOCCPFL": "Y",
      "AOCC02FL": "",
      "AOCC03FL": "",
      "AOCC04FL": "",
      "CQ01NAM": "DERMATOLOGIC EVENTS",
      "AOCC01FL": "Y"
    },
    {
      "STUDYID": "CDISCPILOT01",
      "SITEID": "701",
      "USUBJID": "01-701-1023",
      "TRTA": "Placebo",
      "TRTAN": 5.397605346934028e-79,
      "AGE": 64.0,
      "AGEGR1": "<65",
      "AGEGR1N": 1.0,
      "RACE": "WHITE",
      "RACEN": 1.0,
      "SEX": "M",
      "SAFFL": "Y",
      "TRTSDT": 19210.0,
      "TRTEDT": 19237.0,
      "ASTDT": 19212.0,
      "ASTDTF": "",
      "ASTDY": 3.0,
      "AENDT": NaN,
      "AENDY": NaN,
      "ADURN": NaN,
      "ADURU": "",
      "AETERM": "ERYTHEMA",
      "AELLT": "LOCALIZED ERYTHEMA",
      "AELLTCD": null,
      "AEDECOD": "ERYTHEMA",
      "AEPTCD": null,
      "AEHLT": "HLT_0284",
      "AEHLTCD": null,
      "AEHLGT": "HLGT_0192",
      "AEHLGTCD": null,
      "AEBODSYS": "SKIN AND SUBCUTANEOUS TISSUE DISORDERS",
      "AESOC": "SKIN AND SUBCUTANEOUS TISSUE DISORDERS",
      "AESOCCD": null,
      "AESEV": "MODERATE",
      "AESER": "N",
      "AESCAN": "N",
      "AESCONG": "N",
      "AESDISAB": "N",
      "AESDTH": "N",
      "AESHOSP": "N",
      "AESLIFE": "N",
      "AESOD": "N",
      "AEREL": "PROBABLE",
      "AEACN": "",
      "AEOUT": "NOT RECOVERED/NOT RESOLVED",
      "AESEQ": 2.0,
      "TRTEMFL": "Y",
      "AOCCFL": "",
      "AOCCSFL": "",
      "AOCCPFL": "",
      "AOCC02FL": "",
      "AOCC03FL": "",
      "AOCC04FL": "",
      "CQ01NAM": "DERMATOLOGIC EVENTS",
      "AOCC01FL": ""
    },
    {
      "STUDYID": "CDISCPILOT01",
      "SITEID": "701",
      "USUBJID": "01-701-1023",
      "TRTA": "Placebo",
      "TRTAN": 5.397605346934028e-79,
      "AGE": 64.0,
      "AGEGR1": "<65",
      "AGEGR1N": 1.0,
      "RACE": "WHITE",
      "RACEN": 1.0,
      "SEX": "M",
      "SAFFL": "Y",
      "TRTSDT": 19210.0,
      "TRTEDT": 19237.0,
      "ASTDT": 19231.0,
      "ASTDTF": "",
      "ASTDY": 22.0,
      "AENDT": NaN,
      "AENDY": NaN,
      "ADURN": NaN,
      "ADURU": "",
      "AETERM": "ATRIOVENTRICULAR BLOCK SECOND DEGREE",
      "AELLT": "AV BLOCK SECOND DEGREE",
      "AELLTCD": null,
      "AEDECOD": "ATRIOVENTRICULAR BLOCK SECOND DEGREE",
      "AEPTCD": null,
      "AEHLT": "HLT_0415",
      "AEHLTCD": null,
      "AEHLGT": "HLGT_0086",
      "AEHLGTCD": null,
      "AEBODSYS": "CARDIAC DISORDERS",
      "AESOC": "CARDIAC DISORDERS",
      "AESOCCD": null,
      "AESEV": "MILD",
      "AESER": "N",
      "AESCAN": "N",
      "AESCONG": "N",
      "AESDISAB": "N",
      "AESDTH": "N",
      "AESHOSP": "N",
      "AESLIFE": "N",
      "AESOD": "N",
      "AEREL": "POSSIBLE",
      "AEACN": "",
      "AEOUT": "NOT RECOVERED/NOT RESOLVED",
      "AESEQ": 3.0,
      "TRTEMFL": "Y",
      "AOCCFL": "",
      "AOCCSFL": "Y",
      "AOCCPFL": "Y",
      "AOCC02FL": "",
      "AOCC03FL": "",
      "AOCC04FL": "",
      "CQ01NAM": "",
      "AOCC01FL": ""
    },
    {
      "STUDYID": "CDISCPILOT01",
      "SITEID": "701",
      "USUBJID": "01-701-1023",
      "TRTA": "Placebo",
      "TRTAN": 5.397605346934028e-79,
      "AGE": 64.0,
      "AGEGR1": "<65",
      "AGEGR1N": 1.0,
      "RACE": "WHITE",
      "RACEN": 1.0,
      "SEX": "M",
      "SAFFL": "Y",
      "TRTSDT": 19210.0,
      "TRTEDT": 19237.0,
      "ASTDT": 19212.0,
      "ASTDTF": "",
      "ASTDY": 3.0,
      "AENDT": 19235.0,
      "AENDY": 26.0,
      "ADURN": 24.0,
      "ADURU": "DAY",
      "AETERM": "ERYTHEMA",
      "AELLT": "ERYTHEMA",
      "AELLTCD": null,
      "AEDECOD": "ERYTHEMA",
      "AEPTCD": null,
      "AEHLT": "HLT_0284",
      "AEHLTCD": null,
      "AEHLGT": "HLGT_0192",
      "AEHLGTCD": null,
      "AEBODSYS": "SKIN AND SUBCUTANEOUS TISSUE DISORDERS",
      "AESOC": "SKIN AND SUBCUTANEOUS TISSUE DISORDERS",
      "AESOCCD": null,
      "AESEV": "MILD",
      "AESER": "N",
      "AESCAN": "N",
      "AESCONG": "N",
      "AESDISAB": "N",
      "AESDTH": "N",
      "AESHOSP": "N",
      "AESLIFE": "N",
      "AESOD": "N",
      "AEREL": "POSSIBLE",
      "AEACN": "",
      "AEOUT": "RECOVERED/RESOLVED",
      "AESEQ": 4.0,
      "TRTEMFL": "Y",
      "AOCCFL": "",
      "AOCCSFL": "",
      "AOCCPFL": "",
      "AOCC02FL": "",
      "AOCC03FL": "",
      "AOCC04FL": "",
      "CQ01NAM": "DERMATOLOGIC EVENTS",
      "AOCC01FL": ""
    },
    {
      "STUDYID": "CDISCPILOT01",
      "SITEID": "701",
      "USUBJID": "01-701-1028",
      "TRTA": "Xanomeline High Dose",
      "TRTAN": 81.0,
      "AGE": 71.0,
      "AGEGR1": "65-80",
      "AGEGR1N": 2.0,
      "RACE": "WHITE",
      "RACEN": 1.0,
      "SEX": "M",
      "SAFFL": "Y",
      "TRTSDT": 19558.0,
      "TRTEDT": 19737.0,
      "ASTDT": 19560.0,
      "ASTDTF": "",
      "ASTDY": 3.0,
      "AENDT": NaN,
      "AENDY": NaN,
      "ADURN": NaN,
      "ADURU": "",
      "AETERM": "APPLICATION SITE ERYTHEMA",
      "AELLT": "APPLICATION SITE ERYTHEMA",
      "AELLTCD": null,
      "AEDECOD": "APPLICATION SITE ERYTHEMA",
      "AEPTCD": null,
      "AEHLT": "HLT_0617",
      "AEHLTCD": null,
      "AEHLGT": "HLGT_0152",
      "AEHLGTCD": null,
      "AEBODSYS": "GENERAL DISORDERS AND ADMINISTRATION SITE CONDITIONS",
      "AESOC": "GENERAL DISORDERS AND ADMINISTRATION SITE CONDITIONS",
      "AESOCCD": null,
      "AESEV": "MILD",
      "AESER": "N",
      "AESCAN": "N",
      "AESCONG": "N",
      "AESDISAB": "N",
      "AESDTH": "N",
      "AESHOSP": "N",
      "AESLIFE": "N",
      "AESOD": "N",
      "AEREL": "POSSIBLE",
      "AEACN": "",
      "AEOUT": "NOT RECOVERED/NOT RESOLVED",
      "AESEQ": 1.0,
      "TRTEMFL": "Y",
      "AOCCFL": "Y",
      "AOCCSFL": "Y",
      "AOCCPFL": "Y",
      "AOCC02FL": "",
      "AOCC03FL": "",
      "AOCC04FL": "",
      "CQ01NAM": "DERMATOLOGIC EVENTS",
      "AOCC01FL": "Y"
    },
    {
      "STUDYID": "CDISCPILOT01",
      "SITEID": "701",
      "USUBJID": "01-701-1028",
      "TRTA": "Xanomeline High Dose",
      "TRTAN": 81.0,
      "AGE": 71.0,
      "AGEGR1": "65-80",
      "AGEGR1N": 2.0,
      "RACE": "WHITE",
      "RACEN": 1.0,
      "SEX": "M",
      "SAFFL": "Y",
      "TRTSDT": 19558.0,
      "TRTEDT": 19737.0,
      "ASTDT": 19578.0,
      "ASTDTF": "",
      "ASTDY": 21.0,
      "AENDT": NaN,
      "AENDY": NaN,
      "ADURN": NaN,
      "ADURU": "",
      "AETERM": "APPLICATION SITE PRURITUS",
      "AELLT": "APPLICATION SITE ITCHING",
      "AELLTCD": null,
      "AEDECOD": "APPLICATION SITE PRURITUS",
      "AEPTCD": null,
      "AEHLT": "HLT_0317",
      "AEHLTCD": null,
      "AEHLGT": "HLGT_0338",
      "AEHLGTCD": null,
      "AEBODSYS": "GENERAL DISORDERS AND ADMINISTRATION SITE CONDITIONS",
      "AESOC": "GENERAL DISORDERS AND ADMINISTRATION SITE CONDITIONS",
      "AESOCCD": null,
      "AESEV": "MILD",
      "AESER": "N",
      "AESCAN": "N",
      "AESCONG": "N",
      "AESDISAB": "N",
      "AESDTH": "N",
      "AESHOSP": "N",
      "AESLIFE": "N",
      "AESOD": "N",
      "AEREL": "PROBABLE",
      "AEACN": "",
      "AEOUT": "NOT RECOVERED/NOT RESOLVED",
      "AESEQ": 2.0,
      "TRTEMFL": "Y",
      "AOCCFL": "",
      "AOCCSFL": "",
      "AOCCPFL": "Y",
      "AOCC02FL": "",
      "AOCC03FL": "",
      "AOCC04FL": "",
      "CQ01NAM": "DERMATOLOGIC EVENTS",
      "AOCC01FL": ""
    },
    {
      "STUDYID": "CDISCPILOT01",
      "SITEID": "701",
      "USUBJID": "01-701-1034",
      "TRTA": "Xanomeline High Dose",
      "TRTAN": 81.0,
      "AGE": 77.0,
      "AGEGR1": "65-80",
      "AGEGR1N": 2.0,
      "RACE": "WHITE",
      "RACEN": 1.0,
      "SEX": "F",
      "SAFFL": "Y",
      "TRTSDT": 19905.0,
      "TRTEDT": 20087.0,
      "ASTDT": 19962.0,
      "ASTDTF": "",
      "ASTDY": 58.0,
      "AENDT": NaN,
      "AENDY": NaN,
      "ADURN": NaN,
      "ADURU": "",
      "AETERM": "APPLICATION SITE PRURITUS",
      "AELLT": "APPLICATION SITE ITCHING",
      "AELLTCD": null,
      "AEDECOD": "APPLICATION SITE PRURITUS",
      "AEPTCD": null,
      "AEHLT": "HLT_0317",
      "AEHLTCD": null,
      "AEHLGT": "HLGT_0338",
      "AEHLGTCD": null,
      "AEBODSYS": "GENERAL DISORDERS AND ADMINISTRATION SITE CONDITIONS",
      "AESOC": "GENERAL DISORDERS AND ADMINISTRATION SITE CONDITIONS",
      "AESOCCD": null,
      "AESEV": "MILD",
      "AESER": "N",
      "AESCAN": "N",
      "AESCONG": "N",
      "AESDISAB": "N",
      "AESDTH": "N",
      "AESHOSP": "N",
      "AESLIFE": "N",
      "AESOD": "N",
      "AEREL": "PROBABLE",
      "AEACN": "",
      "AEOUT": "NOT RECOVERED/NOT RESOLVED",
      "AESEQ": 1.0,
      "TRTEMFL": "Y",
      "AOCCFL": "Y",
      "AOCCSFL": "Y",
      "AOCCPFL": "Y",
      "AOCC02FL": "",
      "AOCC03FL": "",
      "AOCC04FL": "",
      "CQ01NAM": "DERMATOLOGIC EVENTS",
      "AOCC01FL": "Y"
    },
    {
      "STUDYID": "CDISCPILOT01",
      "SITEID": "701",
      "USUBJID": "01-701-1034",
      "TRTA": "Xanomeline High Dose",
      "TRTAN": 81.0,
      "AGE": 77.0,
      "AGEGR1": "65-80",
      "AGEGR1N": 2.0,
      "RACE": "WHITE",
      "RACEN": 1.0,
      "SEX": "F",
      "SAFFL": "Y",
      "TRTSDT": 19905.0,
      "TRTEDT": 20087.0,
      "ASTDT": 20029.0,
      "ASTDTF": "",
      "ASTDY": 125.0,
      "AENDT": NaN,
      "AENDY": NaN,
      "ADURN": NaN,
      "ADURU": "",
      "AETERM": "FATIGUE",
      "AELLT": "FATIGUE",
      "AELLTCD": null,
      "AEDECOD": "FATIGUE",
      "AEPTCD": null,
      "AEHLT": "HLT_0043",
      "AEHLTCD": null,
      "AEHLGT": "HLGT_0181",
      "AEHLGTCD": null,
      "AEBODSYS": "GENERAL DISORDERS AND ADMINISTRATION SITE CONDITIONS",
      "AESOC": "GENERAL DISORDERS AND ADMINISTRATION SITE CONDITIONS",
      "AESOCCD": null,
      "AESEV": "MILD",
      "AESER": "N",
      "AESCAN": "N",
      "AESCONG": "N",
      "AESDISAB": "N",
      "AESDTH": "N",
      "AESHOSP": "N",
      "AESLIFE": "N",
      "AESOD": "N",
      "AEREL": "POSSIBLE",
      "AEACN": "",
      "AEOUT": "NOT RECOVERED/NOT RESOLVED",
      "AESEQ": 2.0,
      "TRTEMFL": "Y",
      "AOCCFL": "",
      "AOCCSFL": "",
      "AOCCPFL": "Y",
      "AOCC02FL": "",
      "AOCC03FL": "",
      "AOCC04FL": "",
      "CQ01NAM": "",
      "AOCC01FL": ""
    },
    {
      "STUDYID": "CDISCPILOT01",
      "SITEID": "701",
      "USUBJID": "01-701-1047",
      "TRTA": "Placebo",
      "TRTAN": 5.397605346934028e-79,
      "AGE": 85.0,
      "AGEGR1": ">80",
      "AGEGR1N": 3.0,
      "RACE": "WHITE",
      "RACEN": 1.0,
      "SEX": "F",
      "SAFFL": "Y",
      "TRTSDT": 19401.0,
      "TRTEDT": 19426.0,
      "ASTDT": 19401.0,
      "ASTDTF": "",
      "ASTDY": 1.0,
      "AENDT": 19401.0,
      "AENDY": 1.0,
      "ADURN": 1.0,
      "ADURU": "DAY",
      "AETERM": "HIATUS HERNIA",
      "AELLT": "HERNIA HIATAL",
      "AELLTCD": null,
      "AEDECOD": "HIATUS HERNIA",
      "AEPTCD": null,
      "AEHLT": "HLT_0159",
      "AEHLTCD": null,
      "AEHLGT": "HLGT_0109",
      "AEHLGTCD": null,
      "AEBODSYS": "GASTROINTESTINAL DISORDERS",
      "AESOC": "GASTROINTESTINAL DISORDERS",
      "AESOCCD": null,
      "AESEV": "MODERATE",
      "AESER": "N",
      "AESCAN": "N",
      "AESCONG": "N",
      "AESDISAB": "N",
      "AESDTH": "N",
      "AESHOSP": "N",
      "AESLIFE": "N",
      "AESOD": "N",
      "AEREL": "NONE",
      "AEACN": "",
      "AEOUT": "NOT RECOVERED/NOT RESOLVED",
      "AESEQ": 1.0,
      "TRTEMFL": "Y",
      "AOCCFL": "Y",
      "AOCCSFL": "Y",
      "AOCCPFL": "Y",
      "AOCC02FL": "",
      "AOCC03FL": "",
      "AOCC04FL": "",
      "CQ01NAM": "",
      "AOCC01FL": ""
    },
    {
      "STUDYID": "CDISCPILOT01",
      "SITEID": "701",
      "USUBJID": "01-701-1047",
      "TRTA": "Placebo",
      "TRTAN": 5.397605346934028e-79,
      "AGE": 85.0,
      "AGEGR1": ">80",
      "AGEGR1N": 3.0,
      "RACE": "WHITE",
      "RACEN": 1.0,
      "SEX": "F",
      "SAFFL": "Y",
      "TRTSDT": 19401.0,
      "TRTEDT": 19426.0,
      "ASTDT": 19401.0,
      "ASTDTF": "",
      "ASTDY": 1.0,
      "AENDT": 19401.0,
      "AENDY": 1.0,
      "ADURN": 1.0,
      "ADURU": "DAY",
      "AETERM": "HIATUS HERNIA",
      "AELLT": "HERNIA HIATAL",
      "AELLTCD": null,
      "AEDECOD": "HIATUS HERNIA",
      "AEPTCD": null,
      "AEHLT": "HLT_0159",
      "AEHLTCD": null,
      "AEHLGT": "HLGT_0109",
      "AEHLGTCD": null,
      "AEBODSYS": "GASTROINTESTINAL DISORDERS",
      "AESOC": "GASTROINTESTINAL DISORDERS",
      "AESOCCD": null,
      "AESEV": "MODERATE",
      "AESER": "N",
      "AESCAN": "N",
      "AESCONG": "N",
      "AESDISAB": "N",
      "AESDTH": "N",
      "AESHOSP": "N",
      "AESLIFE": "N",
      "AESOD": "N",
      "AEREL": "NONE",
      "AEACN": "",
      "AEOUT": "RECOVERED/RESOLVED",
      "AESEQ": 2.0,
      "TRTEMFL": "Y",
      "AOCCFL": "",
      "AOCCSFL": "",
      "AOCCPFL": "",
      "AOCC02FL": "",
      "AOCC03FL": "",
      "AOCC04FL": "",
      "CQ01NAM": "",
      "AOCC01FL": ""
    },
    {
      "STUDYID": "CDISCPILOT01",
      "SITEID": "701",
      "USUBJID": "01-701-1047",
      "TRTA": "Placebo",
      "TRTAN": 5.397605346934028e-79,
      "AGE": 85.0,
      "AGEGR1": ">80",
      "AGEGR1N": 3.0,
      "RACE": "WHITE",
      "RACEN": 1.0,
      "SEX": "F",
      "SAFFL": "Y",
      "TRTSDT": 19401.0,
      "TRTEDT": 19426.0,
      "ASTDT": 19423.0,
      "ASTDTF": "",
      "ASTDY": 23.0,
      "AENDT": NaN,
      "AENDY": NaN,
      "ADURN": NaN,
      "ADURU": "",
      "AETERM": "UPPER RESPIRATORY TRACT INFECTION",
      "AELLT": "UPPER RESPIRATORY INFECTION",
      "AELLTCD": null,
      "AEDECOD": "UPPER RESPIRATORY TRACT INFECTION",
      "AEPTCD": null,
      "AEHLT": "HLT_0520",
      "AEHLTCD": null,
      "AEHLGT": "HLGT_0489",
      "AEHLGTCD": null,
      "AEBODSYS": "INFECTIONS AND INFESTATIONS",
      "AESOC": "INFECTIONS AND INFESTATIONS",
      "AESOCCD": null,
      "AESEV": "MILD",
      "AESER": "N",
      "AESCAN": "N",
      "AESCONG": "N",
      "AESDISAB": "N",
      "AESDTH": "N",
      "AESHOSP": "N",
      "AESLIFE": "N",
      "AESOD": "N",
      "AEREL": "NONE",
      "AEACN": "",
      "AEOUT": "NOT RECOVERED/NOT RESOLVED",
      "AESEQ": 3.0,
      "TRTEMFL": "Y",
      "AOCCFL": "",
      "AOCCSFL": "Y",
      "AOCCPFL": "Y",
      "AOCC02FL": "",
      "AOCC03FL": "",
      "AOCC04FL": "",
      "CQ01NAM": "",
      "AOCC01FL": ""
    },
    {
      "STUDYID": "CDISCPILOT01",
      "SITEID": "701",
      "USUBJID": "01-701-1047",
      "TRTA": "Placebo",
      "TRTAN": 5.397605346934028e-79,
      "AGE": 85.0,
      "AGEGR1": ">80",
      "AGEGR1N": 3.0,
      "RACE": "WHITE",
      "RACEN": 1.0,
      "SEX": "F",
      "SAFFL": "Y",
      "TRTSDT": 19401.0,
      "TRTEDT": 19426.0,
      "ASTDT": 19427.0,
      "ASTDTF": "",
      "ASTDY": 27.0,
      "AENDT": NaN,
      "AENDY": NaN,
      "ADURN": NaN,
      "ADURU": "",
      "AETERM": "BUNDLE BRANCH BLOCK LEFT",
      "AELLT": "LEFT BUNDLE BRANCH BLOCK",
      "AELLTCD": null,
      "AEDECOD": "BUNDLE BRANCH BLOCK LEFT",
      "AEPTCD": null,
      "AEHLT": "HLT_0281",
      "AEHLTCD": null,
      "AEHLGT": "HLGT_0721",
      "AEHLGTCD": null,
      "AEBODSYS": "CARDIAC DISORDERS",
      "AESOC": "CARDIAC DISORDERS",
      "AESOCCD": null,
      "AESEV": "MILD",
      "AESER": "N",
      "AESCAN": "N",
      "AESCONG": "N",
      "AESDISAB": "N",
      "AESDTH": "N",
      "AESHOSP": "N",
      "AESLIFE": "N",
      "AESOD": "N",
      "AEREL": "NONE",
      "AEACN": "",
      "AEOUT": "NOT RECOVERED/NOT RESOLVED",
      "AESEQ": 4.0,
      "TRTEMFL": "Y",
      "AOCCFL": "",
      "AOCCSFL": "Y",
      "AOCCPFL": "Y",
      "AOCC02FL": "",
      "AOCC03FL": "",
      "AOCC04FL": "",
      "CQ01NAM": "",
      "AOCC01FL": ""
    },
    {
      "STUDYID": "CDISCPILOT01",
      "SITEID": "701",
      "USUBJID": "01-701-1097",
      "TRTA": "Xanomeline Low Dose",
      "TRTAN": 54.0,
      "AGE": 68.0,
      "AGEGR1": "65-80",
      "AGEGR1N": 2.0,
      "RACE": "WHITE",
      "RACEN": 1.0,
      "SEX": "M",
      "SAFFL": "Y",
      "TRTSDT": 19724.0,
      "TRTEDT": 19913.0,
      "ASTDT": 19726.0,
      "ASTDTF": "",
      "ASTDY": 3.0,
      "AENDT": NaN,
      "AENDY": NaN,
      "ADURN": NaN,
      "ADURU": "",
      "AETERM": "ERYTHEMA",
      "AELLT": "ERYTHEMA",
      "AELLTCD": null,
      "AEDECOD": "ERYTHEMA",
      "AEPTCD": null,
      "AEHLT": "HLT_0284",
      "AEHLTCD": null,
      "AEHLGT": "HLGT_0192",
      "AEHLGTCD": null,
      "AEBODSYS": "SKIN AND SUBCUTANEOUS TISSUE DISORDERS",
      "AESOC": "SKIN AND SUBCUTANEOUS TISSUE DISORDERS",
      "AESOCCD": null,
      "AESEV": "MILD",
      "AESER": "N",
      "AESCAN": "N",
      "AESCONG": "N",
      "AESDISAB": "N",
      "AESDTH": "N",
      "AESHOSP": "N",
      "AESLIFE": "N",
      "AESOD": "N",
      "AEREL": "POSSIBLE",
      "AEACN": "",
      "AEOUT": "NOT RECOVERED/NOT RESOLVED",
      "AESEQ": 1.0,
      "TRTEMFL": "Y",
      "AOCCFL": "Y",
      "AOCCSFL": "Y",
      "AOCCPFL": "Y",
      "AOCC02FL": "",
      "AOCC03FL": "",
      "AOCC04FL": "",
      "CQ01NAM": "DERMATOLOGIC EVENTS",
      "AOCC01FL": "Y"
    },
    {
      "STUDYID": "CDISCPILOT01",
      "SITEID": "701",
      "USUBJID": "01-701-1097",
      "TRTA": "Xanomeline Low Dose",
      "TRTAN": 54.0,
      "AGE": 68.0,
      "AGEGR1": "65-80",
      "AGEGR1N": 2.0,
      "RACE": "WHITE",
      "RACEN": 1.0,
      "SEX": "M",
      "SAFFL": "Y",
      "TRTSDT": 19724.0,
      "TRTEDT": 19913.0,
      "ASTDT": 19774.0,
      "ASTDTF": "",
      "ASTDY": 51.0,
      "AENDT": 19774.0,
      "AENDY": 51.0,
      "ADURN": 1.0,
      "ADURU": "DAY",
      "AETERM": "PRURITUS GENERALISED",
      "AELLT": "GENERALIZED PRURITUS",
      "AELLTCD": null,
      "AEDECOD": "PRURITUS GENERALISED",
      "AEPTCD": null,
      "AEHLT": "HLT_0123",
      "AEHLTCD": null,
      "AEHLGT": "HLGT_0689",
      "AEHLGTCD": null,
      "AEBODSYS": "SKIN AND SUBCUTANEOUS TISSUE DISORDERS",
      "AESOC": "SKIN AND SUBCUTANEOUS TISSUE DISORDERS",
      "AESOCCD": null,
      "AESEV": "MODERATE",
      "AESER": "N",
      "AESCAN": "N",
      "AESCONG": "N",
      "AESDISAB": "N",
      "AESDTH": "N",
      "AESHOSP": "N",
      "AESLIFE": "N",
      "AESOD": "N",
      "AEREL": "POSSIBLE",
      "AEACN": "",
      "AEOUT": "RECOVERED/RESOLVED",
      "AESEQ": 2.0,
      "TRTEMFL": "Y",
      "AOCCFL": "",
      "AOCCSFL": "",
      "AOCCPFL": "Y",
      "AOCC02FL": "",
      "AOCC03FL": "",
      "AOCC04FL": "",
      "CQ01NAM": "DERMATOLOGIC EVENTS",
      "AOCC01FL": ""
    },
    {
      "STUDYID": "CDISCPILOT01",
      "SITEID": "701",
      "USUBJID": "01-701-1097",
      "TRTA": "Xanomeline Low Dose",
      "TRTAN": 54.0,
      "AGE": 68.0,
      "AGEGR1": "65-80",
      "AGEGR1N": 2.0,
      "RACE": "WHITE",
      "RACEN": 1.0,
      "SEX": "M",
      "SAFFL": "Y",
      "TRTSDT": 19724.0,
      "TRTEDT": 19913.0,
      "ASTDT": 19774.0,
      "ASTDTF": "",
      "ASTDY": 51.0,
      "AENDT": 19776.0,
      "AENDY": 53.0,
      "ADURN": 3.0,
      "ADURU": "DAY",
      "AETERM": "APPLICATION SITE VESICLES",
      "AELLT": "APPLICATION SITE BLISTER",
      "AELLTCD": null,
      "AEDECOD": "APPLICATION SITE VESICLES",
      "AEPTCD": null,
      "AEHLT": "HLT_0180",
      "AEHLTCD": null,
      "AEHLGT": "HLGT_0576",
      "AEHLGTCD": null,
      "AEBODSYS": "GENERAL DISORDERS AND ADMINISTRATION SITE CONDITIONS",
      "AESOC": "GENERAL DISORDERS AND ADMINISTRATION SITE CONDITIONS",
      "AESOCCD": null,
      "AESEV": "MILD",
      "AESER": "N",
      "AESCAN": "N",
      "AESCONG": "N",
      "AESDISAB": "N",
      "AESDTH": "N",
      "AESHOSP": "N",
      "AESLIFE": "N",
      "AESOD": "N",
      "AEREL": "PROBABLE",
      "AEACN": "",
      "AEOUT": "RECOVERED/RESOLVED",
      "AESEQ": 3.0,
      "TRTEMFL": "Y",
      "AOCCFL": "",
      "AOCCSFL": "Y",
      "AOCCPFL": "Y",
      "AOCC02FL": "",
      "AOCC03FL": "",
      "AOCC04FL": "",
      "CQ01NAM": "DERMATOLOGIC EVENTS",
      "AOCC01FL": ""
    },
    {
      "STUDYID": "CDISCPILOT01",
      "SITEID": "701",
      "USUBJID": "01-701-1097",
      "TRTA": "Xanomeline Low Dose",
      "TRTAN": 54.0,
      "AGE": 68.0,
      "AGEGR1": "65-80",
      "AGEGR1N": 2.0,
      "RACE": "WHITE",
      "RACEN": 1.0,
      "SEX": "M",
      "SAFFL": "Y",
      "TRTSDT": 19724.0,
      "TRTEDT": 19913.0,
      "ASTDT": 19775.0,
      "ASTDTF": "",
      "ASTDY": 52.0,
      "AENDT": NaN,
      "AENDY": NaN,
      "ADURN": NaN,
      "ADURU": "",
      "AETERM": "APPLICATION SITE PRURITUS",
      "AELLT": "APPLICATION SITE ITCHING",
      "AELLTCD": null,
      "AEDECOD": "APPLICATION SITE PRURITUS",
      "AEPTCD": null,
      "AEHLT": "HLT_0317",
      "AEHLTCD": null,
      "AEHLGT": "HLGT_0338",
      "AEHLGTCD": null,
      "AEBODSYS": "GENERAL DISORDERS AND ADMINISTRATION SITE CONDITIONS",
      "AESOC": "GENERAL DISORDERS AND ADMINISTRATION SITE CONDITIONS",
      "AESOCCD": null,
      "AESEV": "MILD",
      "AESER": "N",
      "AESCAN": "N",
      "AESCONG": "N",
      "AESDISAB": "N",
      "AESDTH": "N",
      "AESHOSP": "N",
      "AESLIFE": "N",
      "AESOD": "N",
      "AEREL": "POSSIBLE",
      "AEACN": "",
      "AEOUT": "NOT RECOVERED/NOT RESOLVED",
      "AESEQ": 4.0,
      "TRTEMFL": "Y",
      "AOCCFL": "",
      "AOCCSFL": "",
      "AOCCPFL": "Y",
      "AOCC02FL": "",
      "AOCC03FL": "",
      "AOCC04FL": "",
      "CQ01NAM": "DERMATOLOGIC EVENTS",
      "AOCC01FL": ""
    },
    {
      "STUDYID": "CDISCPILOT01",
      "SITEID": "701",
      "USUBJID": "01-701-1097",
      "TRTA": "Xanomeline Low Dose",
      "TRTAN": 54.0,
      "AGE": 68.0,
      "AGEGR1": "65-80",
      "AGEGR1N": 2.0,
      "RACE": "WHITE",
      "RACEN": 1.0,
      "SEX": "M",
      "SAFFL": "Y",
      "TRTSDT": 19724.0,
      "TRTEDT": 19913.0,
      "ASTDT": 19803.0,
      "ASTDTF": "",
      "ASTDY": 80.0,
      "AENDT": 19803.0,
      "AENDY": 80.0,
      "ADURN": 1.0,
      "ADURU": "DAY",
      "AETERM": "PRURITUS GENERALISED",
      "AELLT": "GENERALIZED PRURITUS",
      "AELLTCD": null,
      "AEDECOD": "PRURITUS GENERALISED",
      "AEPTCD": null,
      "AEHLT": "HLT_0123",
      "AEHLTCD": null,
      "AEHLGT": "HLGT_0689",
      "AEHLGTCD": null,
      "AEBODSYS": "SKIN AND SUBCUTANEOUS TISSUE DISORDERS",
      "AESOC": "SKIN AND SUBCUTANEOUS TISSUE DISORDERS",
      "AESOCCD": null,
      "AESEV": "MODERATE",
      "AESER": "N",
      "AESCAN": "N",
      "AESCONG": "N",
      "AESDISAB": "N",
      "AESDTH": "N",
      "AESHOSP": "N",
      "AESLIFE": "N",
      "AESOD": "N",
      "AEREL": "POSSIBLE",
      "AEACN": "",
      "AEOUT": "RECOVERED/RESOLVED",
      "AESEQ": 5.0,
      "TRTEMFL": "Y",
      "AOCCFL": "",
      "AOCCSFL": "",
      "AOCCPFL": "",
      "AOCC02FL": "",
      "AOCC03FL": "",
      "AOCC04FL": "",
      "CQ01NAM": "DERMATOLOGIC EVENTS",
      "AOCC01FL": ""
    },
    {
      "STUDYID": "CDISCPILOT01",
      "SITEID": "701",
      "USUBJID": "01-701-1097",
      "TRTA": "Xanomeline Low Dose",
      "TRTAN": 54.0,
      "AGE": 68.0,
      "AGEGR1": "65-80",
      "AGEGR1N": 2.0,
      "RACE": "WHITE",
      "RACEN": 1.0,
      "SEX": "M",
      "SAFFL": "Y",
      "TRTSDT": 19724.0,
      "TRTEDT": 19913.0,
      "ASTDT": 19813.0,
      "ASTDTF": "",
      "ASTDY": 90.0,
      "AENDT": 19813.0,
      "AENDY": 90.0,
      "ADURN": 1.0,
      "ADURU": "DAY",
      "AETERM": "PRURITUS GENERALISED",
      "AELLT": "GENERALIZED PRURITUS",
      "AELLTCD": null,
      "AEDECOD": "PRURITUS GENERALISED",
      "AEPTCD": null,
      "AEHLT": "HLT_0123",
      "AEHLTCD": null,
      "AEHLGT": "HLGT_0689",
      "AEHLGTCD": null,
      "AEBODSYS": "SKIN AND SUBCUTANEOUS TISSUE DISORDERS",
      "AESOC": "SKIN AND SUBCUTANEOUS TISSUE DISORDERS",
      "AESOCCD": null,
      "AESEV": "MODERATE",
      "AESER": "N",
      "AESCAN": "N",
      "AESCONG": "N",
      "AESDISAB": "N",
      "AESDTH": "N",
      "AESHOSP": "N",
      "AESLIFE": "N",
      "AESOD": "N",
      "AEREL": "POSSIBLE",
      "AEACN": "",
      "AEOUT": "RECOVERED/RESOLVED",
      "AESEQ": 6.0,
      "TRTEMFL": "Y",
      "AOCCFL": "",
      "AOCCSFL": "",
      "AOCCPFL": "",
      "AOCC02FL": "",
      "AOCC03FL": "",
      "AOCC04FL": "",
      "CQ01NAM": "DERMATOLOGIC EVENTS",
      "AOCC01FL": ""
    },
    {
      "STUDYID": "CDISCPILOT01",
      "SITEID": "701",
      "USUBJID": "01-701-1097",
      "TRTA": "Xanomeline Low Dose",
      "TRTAN": 54.0,
      "AGE": 68.0,
      "AGEGR1": "65-80",
      "AGEGR1N": 2.0,
      "RACE": "WHITE",
      "RACEN": 1.0,
      "SEX": "M",
      "SAFFL": "Y",
      "TRTSDT": 19724.0,
      "TRTEDT": 19913.0,
      "ASTDT": 19832.0,
      "ASTDTF": "",
      "ASTDY": 109.0,
      "AENDT": 19833.0,
      "AENDY": 110.0,
      "ADURN": 2.0,
      "ADURU": "DAY",
      "AETERM": "PRURITUS GENERALISED",
      "AELLT": "GENERALIZED PRURITUS",
      "AELLTCD": null,
      "AEDECOD": "PRURITUS GENERALISED",
      "AEPTCD": null,
      "AEHLT": "HLT_0123",
      "AEHLTCD": null,
      "AEHLGT": "HLGT_0689",
      "AEHLGTCD": null,
      "AEBODSYS": "SKIN AND SUBCUTANEOUS TISSUE DISORDERS",
      "AESOC": "SKIN AND SUBCUTANEOUS TISSUE DISORDERS",
      "AESOCCD": null,
      "AESEV": "MODERATE",
      "AESER": "N",
      "AESCAN": "N",
      "AESCONG": "N",
      "AESDISAB": "N",
      "AESDTH": "N",
      "AESHOSP": "N",
      "AESLIFE": "N",
      "AESOD": "N",
      "AEREL": "POSSIBLE",
      "AEACN": "",
      "AEOUT": "RECOVERED/RESOLVED",
      "AESEQ": 7.0,
      "TRTEMFL": "Y",
      "AOCCFL": "",
      "AOCCSFL": "",
      "AOCCPFL": "",
      "AOCC02FL": "",
      "AOCC03FL": "",
      "AOCC04FL": "",
      "CQ01NAM": "DERMATOLOGIC EVENTS",
      "AOCC01FL": ""
    },
    {
      "STUDYID": "CDISCPILOT01",
      "SITEID": "701",
      "USUBJID": "01-701-1097",
      "TRTA": "Xanomeline Low Dose",
      "TRTAN": 54.0,
      "AGE": 68.0,
      "AGEGR1": "65-80",
      "AGEGR1N": 2.0,
      "RACE": "WHITE",
      "RACEN": 1.0,
      "SEX": "M",
      "SAFFL": "Y",
      "TRTSDT": 19724.0,
      "TRTEDT": 19913.0,
      "ASTDT": 19832.0,
      "ASTDTF": "",
      "ASTDY": 109.0,
      "AENDT": 19835.0,
      "AENDY": 112.0,
      "ADURN": 4.0,
      "ADURU": "DAY",
      "AETERM": "PHARYNGOLARYNGEAL PAIN",
      "AELLT": "SORE THROAT",
      "AELLTCD": null,
      "AEDECOD": "PHARYNGOLARYNGEAL PAIN",
      "AEPTCD": null,
      "AEHLT": "HLT_0130",
      "AEHLTCD": null,
      "AEHLGT": "HLGT_0402",
      "AEHLGTCD": null,
      "AEBODSYS": "RESPIRATORY, THORACIC AND MEDIASTINAL DISORDERS",
      "AESOC": "RESPIRATORY, THORACIC AND MEDIASTINAL DISORDERS",
      "AESOCCD": null,
      "AESEV": "MILD",
      "AESER": "N",
      "AESCAN": "N",
      "AESCONG": "N",
      "AESDISAB": "N",
      "AESDTH": "N",
      "AESHOSP": "N",
      "AESLIFE": "N",
      "AESOD": "N",
      "AEREL": "NONE",
      "AEACN": "",
      "AEOUT": "RECOVERED/RESOLVED",
      "AESEQ": 8.0,
      "TRTEMFL": "Y",
      "AOCCFL": "",
      "AOCCSFL": "Y",
      "AOCCPFL": "Y",
      "AOCC02FL": "",
      "AOCC03FL": "",
      "AOCC04FL": "",
      "CQ01NAM": "",
      "AOCC01FL": ""
    },
    {
      "STUDYID": "CDISCPILOT01",
      "SITEID": "701",
      "USUBJID": "01-701-1097",
      "TRTA": "Xanomeline Low Dose",
      "TRTAN": 54.0,
      "AGE": 68.0,
      "AGEGR1": "65-80",
      "AGEGR1N": 2.0,
      "RACE": "WHITE",
      "RACEN": 1.0,
      "SEX": "M",
      "SAFFL": "Y",
      "TRTSDT": 19724.0,
      "TRTEDT": 19913.0,
      "ASTDT": 19832.0,
      "ASTDTF": "",
      "ASTDY": 109.0,
      "AENDT": 19835.0,
      "AENDY": 112.0,
      "ADURN": 4.0,
      "ADURU": "DAY",
      "AETERM": "NASAL CONGESTION",
      "AELLT": "NASAL CONGESTION",
      "AELLTCD": null,
      "AEDECOD": "NASAL CONGESTION",
      "AEPTCD": null,
      "AEHLT": "HLT_0118",
      "AEHLTCD": null,
      "AEHLGT": "HLGT_0549",
      "AEHLGTCD": null,
      "AEBODSYS": "RESPIRATORY, THORACIC AND MEDIASTINAL DISORDERS",
      "AESOC": "RESPIRATORY, THORACIC AND MEDIASTINAL DISORDERS",
      "AESOCCD": null,
      "AESEV": "MILD",
      "AESER": "N",
      "AESCAN": "N",
      "AESCONG": "N",
      "AESDISAB": "N",
      "AESDTH": "N",
      "AESHOSP": "N",
      "AESLIFE": "N",
      "AESOD": "N",
      "AEREL": "NONE",
      "AEACN": "",
      "AEOUT": "RECOVERED/RESOLVED",
      "AESEQ": 9.0,
      "TRTEMFL": "Y",
      "AOCCFL": "",
      "AOCCSFL": "",
      "AOCCPFL": "Y",
      "AOCC02FL": "",
      "AOCC03FL": "",
      "AOCC04FL": "",
      "CQ01NAM": "",
      "AOCC01FL": ""
    },
    {
      "STUDYID": "CDISCPILOT01",
      "SITEID": "701",
      "USUBJID": "01-701-1097",
      "TRTA": "Xanomeline Low Dose",
      "TRTAN": 54.0,
      "AGE": 68.0,
      "AGEGR1": "65-80",
      "AGEGR1N": 2.0,
      "RACE": "WHITE",
      "RACEN": 1.0,
      "SEX": "M",
      "SAFFL": "Y",
      "TRTSDT": 19724.0,
      "TRTEDT": 19913.0,
      "ASTDT": 19775.0,
      "ASTDTF": "",
      "ASTDY": 52.0,
      "AENDT": NaN,
      "AENDY": NaN,
      "ADURN": NaN,
      "ADURU": "",
      "AETERM": "APPLICATION SITE PRURITUS",
      "AELLT": "APPLICATION SITE ITCHING",
      "AELLTCD": null,
      "AEDECOD": "APPLICATION SITE PRURITUS",
      "AEPTCD": null,
      "AEHLT": "HLT_0317",
      "AEHLTCD": null,
      "AEHLGT": "HLGT_0338",
      "AEHLGTCD": null,
      "AEBODSYS": "GENERAL DISORDERS AND ADMINISTRATION SITE CONDITIONS",
      "AESOC": "GENERAL DISORDERS AND ADMINISTRATION SITE CONDITIONS",
      "AESOCCD": null,
      "AESEV": "MODERATE",
      "AESER": "N",
      "AESCAN": "N",
      "AESCONG": "N",
      "AESDISAB": "N",
      "AESDTH": "N",
      "AESHOSP": "N",
      "AESLIFE": "N",
      "AESOD": "N",
      "AEREL": "POSSIBLE",
      "AEACN": "",
      "AEOUT": "NOT RECOVERED/NOT RESOLVED",
      "AESEQ": 10.0,
      "TRTEMFL": "Y",
      "AOCCFL": "",
      "AOCCSFL": "",
      "AOCCPFL": "",
      "AOCC02FL": "",
      "AOCC03FL": "",
      "AOCC04FL": "",
      "CQ01NAM": "DERMATOLOGIC EVENTS",
      "AOCC01FL": ""
    },
    {
      "STUDYID": "CDISCPILOT01",
      "SITEID": "701",
      "USUBJID": "01-701-1111",
      "TRTA": "Xanomeline Low Dose",
      "TRTAN": 54.0,
      "AGE": 81.0,
      "AGEGR1": ">80",
      "AGEGR1N": 3.0,
      "RACE": "WHITE",
      "RACEN": 1.0,
      "SEX": "F",
      "SAFFL": "Y",
      "TRTSDT": 19243.0,
      "TRTEDT": 19252.0,
      "ASTDT": 19238.0,
      "ASTDTF": "",
      "ASTDY": -5.0,
      "AENDT": 19243.0,
      "AENDY": 1.0,
      "ADURN": 6.0,
      "ADURU": "DAY",
      "AETERM": "ERYTHEMA",
      "AELLT": "ERYTHEMA",
      "AELLTCD": null,
      "AEDECOD": "ERYTHEMA",
      "AEPTCD": null,
      "AEHLT": "HLT_0284",
      "AEHLTCD": null,
      "AEHLGT": "HLGT_0192",
      "AEHLGTCD": null,
      "AEBODSYS": "SKIN AND SUBCUTANEOUS TISSUE DISORDERS",
      "AESOC": "SKIN AND SUBCUTANEOUS TISSUE DISORDERS",
      "AESOCCD": null,
      "AESEV": "MILD",
      "AESER": "N",
      "AESCAN": "N",
      "AESCONG": "N",
      "AESDISAB": "N",
      "AESDTH": "N",
      "AESHOSP": "N",
      "AESLIFE": "N",
      "AESOD": "N",
      "AEREL": "NONE",
      "AEACN": "",
      "AEOUT": "NOT RECOVERED/NOT RESOLVED",
      "AESEQ": 1.0,
      "TRTEMFL": "",
      "AOCCFL": "",
      "AOCCSFL": "",
      "AOCCPFL": "",
      "AOCC02FL": "",
      "AOCC03FL": "",
      "AOCC04FL": "",
      "CQ01NAM": "DERMATOLOGIC EVENTS",
      "AOCC01FL": ""
    },
    {
      "STUDYID": "CDISCPILOT01",
      "SITEID": "701",
      "USUBJID": "01-701-1111",
      "TRTA": "Xanomeline Low Dose",
      "TRTAN": 54.0,
      "AGE": 81.0,
      "AGEGR1": ">80",
      "AGEGR1N": 3.0,
      "RACE": "WHITE",
      "RACEN": 1.0,
      "SEX": "F",
      "SAFFL": "Y",
      "TRTSDT": 19243.0,
      "TRTEDT": 19252.0,
      "ASTDT": 19238.0,
      "ASTDTF": "",
      "ASTDY": -5.0,
      "AENDT": 19243.0,
      "AENDY": 1.0,
      "ADURN": 6.0,
      "ADURU": "DAY",
      "AETERM": "PRURITUS",
      "AELLT": "ITCHING",
      "AELLTCD": null,
      "AEDECOD": "PRURITUS",
      "AEPTCD": null,
      "AEHLT": "HLT_0778",
      "AEHLTCD": null,
      "AEHLGT": "HLGT_0695",
      "AEHLGTCD": null,
      "AEBODSYS": "SKIN AND SUBCUTANEOUS TISSUE DISORDERS",
      "AESOC": "SKIN AND SUBCUTANEOUS TISSUE DISORDERS",
      "AESOCCD": null,
      "AESEV": "MILD",
      "AESER": "N",
      "AESCAN": "N",
      "AESCONG": "N",
      "AESDISAB": "N",
      "AESDTH": "N",
      "AESHOSP": "N",
      "AESLIFE": "N",
      "AESOD": "N",
      "AEREL": "NONE",
      "AEACN": "",
      "AEOUT": "NOT RECOVERED/NOT RESOLVED",
      "AESEQ": 2.0,
      "TRTEMFL": "",
      "AOCCFL": "",
      "AOCCSFL": "",
      "AOCCPFL": "",
      "AOCC02FL": "",
      "AOCC03FL": "",
      "AOCC04FL": "",
      "CQ01NAM": "DERMATOLOGIC EVENTS",
      "AOCC01FL": ""
    },
    {
      "STUDYID": "CDISCPILOT01",
      "SITEID": "701",
      "USUBJID": "01-701-1111",
      "TRTA": "Xanomeline Low Dose",
      "TRTAN": 54.0,
      "AGE": 81.0,
      "AGEGR1": ">80",
      "AGEGR1N": 3.0,
      "RACE": "WHITE",
      "RACEN": 1.0,
      "SEX": "F",
      "SAFFL": "Y",
      "TRTSDT": 19243.0,
      "TRTEDT": 19252.0,
      "ASTDT": 19182.0,
      "ASTDTF": "",
      "ASTDY": -61.0,
      "AENDT": NaN,
      "AENDY": NaN,
      "ADURN": NaN,
      "ADURU": "",
      "AETERM": "LOCALISED INFECTION",
      "AELLT": "LOCALIZED INFECTION",
      "AELLTCD": null,
      "AEDECOD": "LOCALISED INFECTION",
      "AEPTCD": null,
      "AEHLT": "HLT_0435",
      "AEHLTCD": null,
      "AEHLGT": "HLGT_0557",
      "AEHLGTCD": null,
      "AEBODSYS": "INFECTIONS AND INFESTATIONS",
      "AESOC": "INFECTIONS AND INFESTATIONS",
      "AESOCCD": null,
      "AESEV": "MODERATE",
      "AESER": "N",
      "AESCAN": "N",
      "AESCONG": "N",
      "AESDISAB": "N",
      "AESDTH": "N",
      "AESHOSP": "N",
      "AESLIFE": "N",
      "AESOD": "N",
      "AEREL": "NONE",
      "AEACN": "",
      "AEOUT": "NOT RECOVERED/NOT RESOLVED",
      "AESEQ": 3.0,
      "TRTEMFL": "",
      "AOCCFL": "",
      "AOCCSFL": "",
      "AOCCPFL": "",
      "AOCC02FL": "",
      "AOCC03FL": "",
      "AOCC04FL": "",
      "CQ01NAM": "",
      "AOCC01FL": ""
    },
    {
      "STUDYID": "CDISCPILOT01",
      "SITEID": "701",
      "USUBJID": "01-701-1111",
      "TRTA": "Xanomeline Low Dose",
      "TRTAN": 54.0,
      "AGE": 81.0,
      "AGEGR1": ">80",
      "AGEGR1N": 3.0,
      "RACE": "WHITE",
      "RACEN": 1.0,
      "SEX": "F",
      "SAFFL": "Y",
      "TRTSDT": 19243.0,
      "TRTEDT": 19252.0,
      "ASTDT": 19238.0,
      "ASTDTF": "",
      "ASTDY": -5.0,
      "AENDT": 19243.0,
      "AENDY": 1.0,
      "ADURN": 6.0,
      "ADURU": "DAY",
      "AETERM": "ERYTHEMA",
      "AELLT": "ERYTHEMA",
      "AELLTCD": null,
      "AEDECOD": "ERYTHEMA",
      "AEPTCD": null,
      "AEHLT": "HLT_0284",
      "AEHLTCD": null,
      "AEHLGT": "HLGT_0192",
      "AEHLGTCD": null,
      "AEBODSYS": "SKIN AND SUBCUTANEOUS TISSUE DISORDERS",
      "AESOC": "SKIN AND SUBCUTANEOUS TISSUE DISORDERS",
      "AESOCCD": null,
      "AESEV": "MILD",
      "AESER": "N",
      "AESCAN": "N",
      "AESCONG": "N",
      "AESDISAB": "N",
      "AESDTH": "N",
      "AESHOSP": "N",
      "AESLIFE": "N",
      "AESOD": "N",
      "AEREL": "NONE",
      "AEACN": "",
      "AEOUT": "RECOVERED/RESOLVED",
      "AESEQ": 4.0,
      "TRTEMFL": "",
      "AOCCFL": "",
      "AOCCSFL": "",
      "AOCCPFL": "",
      "AOCC02FL": "",
      "AOCC03FL": "",
      "AOCC04FL": "",
      "CQ01NAM": "DERMATOLOGIC EVENTS",
      "AOCC01FL": ""
    },
    {
      "STUDYID": "CDISCPILOT01",
      "SITEID": "701",
      "USUBJID": "01-701-1111",
      "TRTA": "Xanomeline Low Dose",
      "TRTAN": 54.0,
      "AGE": 81.0,
      "AGEGR1": ">80",
      "AGEGR1N": 3.0,
      "RACE": "WHITE",
      "RACEN": 1.0,
      "SEX": "F",
      "SAFFL": "Y",
      "TRTSDT": 19243.0,
      "TRTEDT": 19252.0,
      "ASTDT": 19238.0,
      "ASTDTF": "",
      "ASTDY": -5.0,
      "AENDT": 19243.0,
      "AENDY": 1.0,
      "ADURN": 6.0,
      "ADURU": "DAY",
      "AETERM": "PRURITUS",
      "AELLT": "ITCHING",
      "AELLTCD": null,
      "AEDECOD": "PRURITUS",
      "AEPTCD": null,
      "AEHLT": "HLT_0778",
      "AEHLTCD": null,
      "AEHLGT": "HLGT_0695",
      "AEHLGTCD": null,
      "AEBODSYS": "SKIN AND SUBCUTANEOUS TISSUE DISORDERS",
      "AESOC": "SKIN AND SUBCUTANEOUS TISSUE DISORDERS",
      "AESOCCD": null,
      "AESEV": "MILD",
      "AESER": "N",
      "AESCAN": "N",
      "AESCONG": "N",
      "AESDISAB": "N",
      "AESDTH": "N",
      "AESHOSP": "N",
      "AESLIFE": "N",
      "AESOD": "N",
      "AEREL": "NONE",
      "AEACN": "",
      "AEOUT": "RECOVERED/RESOLVED",
      "AESEQ": 5.0,
      "TRTEMFL": "",
      "AOCCFL": "",
      "AOCCSFL": "",
      "AOCCPFL": "",
      "AOCC02FL": "",
      "AOCC03FL": "",
      "AOCC04FL": "",
      "CQ01NAM": "DERMATOLOGIC EVENTS",
      "AOCC01FL": ""
    },
    {
      "STUDYID": "CDISCPILOT01",
      "SITEID": "701",
      "USUBJID": "01-701-1111",
      "TRTA": "Xanomeline Low Dose",
      "TRTAN": 54.0,
      "AGE": 81.0,
      "AGEGR1": ">80",
      "AGEGR1N": 3.0,
      "RACE": "WHITE",
      "RACEN": 1.0,
      "SEX": "F",
      "SAFFL": "Y",
      "TRTSDT": 19243.0,
      "TRTEDT": 19252.0,
      "ASTDT": 19243.0,
      "ASTDTF": "",
      "ASTDY": 1.0,
      "AENDT": NaN,
      "AENDY": NaN,
      "ADURN": NaN,
      "ADURU": "",
      "AETERM": "MICTURITION URGENCY",
      "AELLT": "URINARY URGENCY",
      "AELLTCD": null,
      "AEDECOD": "MICTURITION URGENCY",
      "AEPTCD": null,
      "AEHLT": "HLT_0294",
      "AEHLTCD": null,
      "AEHLGT": "HLGT_0483",
      "AEHLGTCD": null,
      "AEBODSYS": "RENAL AND URINARY DISORDERS",
      "AESOC": "RENAL AND URINARY DISORDERS",
      "AESOCCD": null,
      "AESEV": "MILD",
      "AESER": "N",
      "AESCAN": "N",
      "AESCONG": "N",
      "AESDISAB": "N",
      "AESDTH": "N",
      "AESHOSP": "N",
      "AESLIFE": "N",
      "AESOD": "N",
      "AEREL": "NONE",
      "AEACN": "",
      "AEOUT": "NOT RECOVERED/NOT RESOLVED",
      "AESEQ": 6.0,
      "TRTEMFL": "Y",
      "AOCCFL": "Y",
      "AOCCSFL": "Y",
      "AOCCPFL": "Y",
      "AOCC02FL": "",
      "AOCC03FL": "",
      "AOCC04FL": "",
      "CQ01NAM": "",
      "AOCC01FL": ""
    },
    {
      "STUDYID": "CDISCPILOT01",
      "SITEID": "701",
      "USUBJID": "01-701-1111",
      "TRTA": "Xanomeline Low Dose",
      "TRTAN": 54.0,
      "AGE": 81.0,
      "AGEGR1": ">80",
      "AGEGR1N": 3.0,
      "RACE": "WHITE",
      "RACEN": 1.0,
      "SEX": "F",
      "SAFFL": "Y",
      "TRTSDT": 19243.0,
      "TRTEDT": 19252.0,
      "ASTDT": 19249.0,
      "ASTDTF": "",
      "ASTDY": 7.0,
      "AENDT": NaN,
      "AENDY": NaN,
      "ADURN": NaN,
      "ADURU": "",
      "AETERM": "ARTHRALGIA",
      "AELLT": "GENERALIZED JOINT PAIN",
      "AELLTCD": null,
      "AEDECOD": "ARTHRALGIA",
      "AEPTCD": null,
      "AEHLT": "HLT_0375",
      "AEHLTCD": null,
      "AEHLGT": "HLGT_0610",
      "AEHLGTCD": null,
      "AEBODSYS": "MUSCULOSKELETAL AND CONNECTIVE TISSUE DISORDERS",
      "AESOC": "MUSCULOSKELETAL AND CONNECTIVE TISSUE DISORDERS",
      "AESOCCD": null,
      "AESEV": "MODERATE",
      "AESER": "N",
      "AESCAN": "N",
      "AESCONG": "N",
      "AESDISAB": "N",
      "AESDTH": "N",
      "AESHOSP": "N",
      "AESLIFE": "N",
      "AESOD": "N",
      "AEREL": "NONE",
      "AEACN": "",
      "AEOUT": "NOT RECOVERED/NOT RESOLVED",
      "AESEQ": 7.0,
      "TRTEMFL": "Y",
      "AOCCFL": "",
      "AOCCSFL": "Y",
      "AOCCPFL": "Y",
      "AOCC02FL": "",
      "AOCC03FL": "",
      "AOCC04FL": "",
      "CQ01NAM": "",
      "AOCC01FL": ""
    },
    {
      "STUDYID": "CDISCPILOT01",
      "SITEID": "701",
      "USUBJID": "01-701-1111",
      "TRTA": "Xanomeline Low Dose",
      "TRTAN": 54.0,
      "AGE": 81.0,
      "AGEGR1": ">80",
      "AGEGR1N": 3.0,
      "RACE": "WHITE",
      "RACEN": 1.0,
      "SEX": "F",
      "SAFFL": "Y",
      "TRTSDT": 19243.0,
      "TRTEDT": 19252.0,
      "ASTDT": 19249.0,
      "ASTDTF": "",
      "ASTDY": 7.0,
      "AENDT": NaN,
      "AENDY": NaN,
      "ADURN": NaN,
      "ADURU": "",
      "AETERM": "CELLULITIS",
      "AELLT": "CELLULITIS OF LEG",
      "AELLTCD": null,
      "AEDECOD": "CELLULITIS",
      "AEPTCD": null,
      "AEHLT": "HLT_0613",
      "AEHLTCD": null,
      "AEHLGT": "HLGT_0066",
      "AEHLGTCD": null,
      "AEBODSYS": "INFECTIONS AND INFESTATIONS",
      "AESOC": "INFECTIONS AND INFESTATIONS",
      "AESOCCD": null,
      "AESEV": "MODERATE",
      "AESER": "N",
      "AESCAN": "N",
      "AESCONG": "N",
      "AESDISAB": "N",
      "AESDTH": "N",
      "AESHOSP": "N",
      "AESLIFE": "N",
      "AESOD": "N",
      "AEREL": "NONE",
      "AEACN": "",
      "AEOUT": "NOT RECOVERED/NOT RESOLVED",
      "AESEQ": 8.0,
      "TRTEMFL": "Y",
      "AOCCFL": "",
      "AOCCSFL": "Y",
      "AOCCPFL": "Y",
      "AOCC02FL": "",
      "AOCC03FL": "",
      "AOCC04FL": "",
      "CQ01NAM": "",
      "AOCC01FL": ""
    },
    {
      "STUDYID": "CDISCPILOT01",
      "SITEID": "701",
      "USUBJID": "01-701-1115",
      "TRTA": "Xanomeline Low Dose",
      "TRTAN": 54.0,
      "AGE": 84.0,
      "AGEGR1": ">80",
      "AGEGR1N": 3.0,
      "RACE": "WHITE",
      "RACEN": 1.0,
      "SEX": "M",
      "SAFFL": "Y",
      "TRTSDT": 19327.0,
      "TRTEDT": 19381.0,
      "ASTDT": 19329.0,
      "ASTDTF": "",
      "ASTDY": 3.0,
      "AENDT": NaN,
      "AENDY": NaN,
      "ADURN": NaN,
      "ADURU": "",
      "AETERM": "APPLICATION SITE ERYTHEMA",
      "AELLT": "APPLICATION SITE REDNESS",
      "AELLTCD": null,
      "AEDECOD": "APPLICATION SITE ERYTHEMA",
      "AEPTCD": null,
      "AEHLT": "HLT_0617",
      "AEHLTCD": null,
      "AEHLGT": "HLGT_0152",
      "AEHLGTCD": null,
      "AEBODSYS": "GENERAL DISORDERS AND ADMINISTRATION SITE CONDITIONS",
      "AESOC": "GENERAL DISORDERS AND ADMINISTRATION SITE CONDITIONS",
      "AESOCCD": null,
      "AESEV": "MILD",
      "AESER": "N",
      "AESCAN": "N",
      "AESCONG": "N",
      "AESDISAB": "N",
      "AESDTH": "N",
      "AESHOSP": "N",
      "AESLIFE": "N",
      "AESOD": "N",
      "AEREL": "PROBABLE",
      "AEACN": "",
      "AEOUT": "NOT RECOVERED/NOT RESOLVED",
      "AESEQ": 1.0,
      "TRTEMFL": "Y",
      "AOCCFL": "Y",
      "AOCCSFL": "Y",
      "AOCCPFL": "Y",
      "AOCC02FL": "",
      "AOCC03FL": "",
      "AOCC04FL": "",
      "CQ01NAM": "DERMATOLOGIC EVENTS",
      "AOCC01FL": "Y"
    },
    {
      "STUDYID": "CDISCPILOT01",
      "SITEID": "701",
      "USUBJID": "01-701-1115",
      "TRTA": "Xanomeline Low Dose",
      "TRTAN": 54.0,
      "AGE": 84.0,
      "AGEGR1": ">80",
      "AGEGR1N": 3.0,
      "RACE": "WHITE",
      "RACEN": 1.0,
      "SEX": "M",
      "SAFFL": "Y",
      "TRTSDT": 19327.0,
      "TRTEDT": 19381.0,
      "ASTDT": 19329.0,
      "ASTDTF": "",
      "ASTDY": 3.0,
      "AENDT": NaN,
      "AENDY": NaN,
      "ADURN": NaN,
      "ADURU": "",
      "AETERM": "APPLICATION SITE PRURITUS",
      "AELLT": "APPLICATION SITE ITCHING",
      "AELLTCD": null,
      "AEDECOD": "APPLICATION SITE PRURITUS",
      "AEPTCD": null,
      "AEHLT": "HLT_0317",
      "AEHLTCD": null,
      "AEHLGT": "HLGT_0338",
      "AEHLGTCD": null,
      "AEBODSYS": "GENERAL DISORDERS AND ADMINISTRATION SITE CONDITIONS",
      "AESOC": "GENERAL DISORDERS AND ADMINISTRATION SITE CONDITIONS",
      "AESOCCD": null,
      "AESEV": "MILD",
      "AESER": "N",
      "AESCAN": "N",
      "AESCONG": "N",
      "AESDISAB": "N",
      "AESDTH": "N",
      "AESHOSP": "N",
      "AESLIFE": "N",
      "AESOD": "N",
      "AEREL": "PROBABLE",
      "AEACN": "",
      "AEOUT": "NOT RECOVERED/NOT RESOLVED",
      "AESEQ": 2.0,
      "TRTEMFL": "Y",
      "AOCCFL": "",
      "AOCCSFL": "",
      "AOCCPFL": "Y",
      "AOCC02FL": "",
      "AOCC03FL": "",
      "AOCC04FL": "",
      "CQ01NAM": "DERMATOLOGIC EVENTS",
      "AOCC01FL": ""
    },
    {
      "STUDYID": "CDISCPILOT01",
      "SITEID": "701",
      "USUBJID": "01-701-1115",
      "TRTA": "Xanomeline Low Dose",
      "TRTAN": 54.0,
      "AGE": 84.0,
      "AGEGR1": ">80",
      "AGEGR1N": 3.0,
      "RACE": "WHITE",
      "RACEN": 1.0,
      "SEX": "M",
      "SAFFL": "Y",
      "TRTSDT": 19327.0,
      "TRTEDT": 19381.0,
      "ASTDT": 19353.0,
      "ASTDTF": "",
      "ASTDY": 27.0,
      "AENDT": 19353.0,
      "AENDY": 27.0,
      "ADURN": 1.0,
      "ADURU": "DAY",
      "AETERM": "APPLICATION SITE IRRITATION",
      "AELLT": "APPLICATION SITE BURNING",
      "AELLTCD": null,
      "AEDECOD": "APPLICATION SITE IRRITATION",
      "AEPTCD": null,
      "AEHLT": "HLT_0061",
      "AEHLTCD": null,
      "AEHLGT": "HLGT_0346",
      "AEHLGTCD": null,
      "AEBODSYS": "GENERAL DISORDERS AND ADMINISTRATION SITE CONDITIONS",
      "AESOC": "GENERAL DISORDERS AND ADMINISTRATION SITE CONDITIONS",
      "AESOCCD": null,
      "AESEV": "MILD",
      "AESER": "N",
      "AESCAN": "N",
      "AESCONG": "N",
      "AESDISAB": "N",
      "AESDTH": "N",
      "AESHOSP": "N",
      "AESLIFE": "N",
      "AESOD": "N",
      "AEREL": "POSSIBLE",
      "AEACN": "",
      "AEOUT": "NOT RECOVERED/NOT RESOLVED",
      "AESEQ": 3.0,
      "TRTEMFL": "Y",
      "AOCCFL": "",
      "AOCCSFL": "",
      "AOCCPFL": "Y",
      "AOCC02FL": "",
      "AOCC03FL": "",
      "AOCC04FL": "",
      "CQ01NAM": "DERMATOLOGIC EVENTS",
      "AOCC01FL": ""
    },
    {
      "STUDYID": "CDISCPILOT01",
      "SITEID": "701",
      "USUBJID": "01-701-1115",
      "TRTA": "Xanomeline Low Dose",
      "TRTAN": 54.0,
      "AGE": 84.0,
      "AGEGR1": ">80",
      "AGEGR1N": 3.0,
      "RACE": "WHITE",
      "RACEN": 1.0,
      "SEX": "M",
      "SAFFL": "Y",
      "TRTSDT": 19327.0,
      "TRTEDT": 19381.0,
      "ASTDT": 19353.0,
      "ASTDTF": "",
      "ASTDY": 27.0,
      "AENDT": 19353.0,
      "AENDY": 27.0,
      "ADURN": 1.0,
      "ADURU": "DAY",
      "AETERM": "APPLICATION SITE IRRITATION",
      "AELLT": "APPLICATION SITE BURNING",
      "AELLTCD": null,
      "AEDECOD": "APPLICATION SITE IRRITATION",
      "AEPTCD": null,
      "AEHLT": "HLT_0061",
      "AEHLTCD": null,
      "AEHLGT": "HLGT_0346",
      "AEHLGTCD": null,
      "AEBODSYS": "GENERAL DISORDERS AND ADMINISTRATION SITE CONDITIONS",
      "AESOC": "GENERAL DISORDERS AND ADMINISTRATION SITE CONDITIONS",
      "AESOCCD": null,
      "AESEV": "MILD",
      "AESER": "N",
      "AESCAN": "N",
      "AESCONG": "N",
      "AESDISAB": "N",
      "AESDTH": "N",
      "AESHOSP": "N",
      "AESLIFE": "N",
      "AESOD": "N",
      "AEREL": "POSSIBLE",
      "AEACN": "",
      "AEOUT": "RECOVERED/RESOLVED",
      "AESEQ": 4.0,
      "TRTEMFL": "Y",
      "AOCCFL": "",
      "AOCCSFL": "",
      "AOCCPFL": "",
      "AOCC02FL": "",
      "AOCC03FL": "",
      "AOCC04FL": "",
      "CQ01NAM": "DERMATOLOGIC EVENTS",
      "AOCC01FL": ""
    },
    {
      "STUDYID": "CDISCPILOT01",
      "SITEID": "701",
      "USUBJID": "01-701-1115",
      "TRTA": "Xanomeline Low Dose",
      "TRTAN": 54.0,
      "AGE": 84.0,
      "AGEGR1": ">80",
      "AGEGR1N": 3.0,
      "RACE": "WHITE",
      "RACEN": 1.0,
      "SEX": "M",
      "SAFFL": "Y",
      "TRTSDT": 19327.0,
      "TRTEDT": 19381.0,
      "ASTDT": 19329.0,
      "ASTDTF": "",
      "ASTDY": 3.0,
      "AENDT": NaN,
      "AENDY": NaN,
      "ADURN": NaN,
      "ADURU": "",
      "AETERM": "APPLICATION SITE ERYTHEMA",
      "AELLT": "APPLICATION SITE REDNESS",
      "AELLTCD": null,
      "AEDECOD": "APPLICATION SITE ERYTHEMA",
      "AEPTCD": null,
      "AEHLT": "HLT_0617",
      "AEHLTCD": null,
      "AEHLGT": "HLGT_0152",
      "AEHLGTCD": null,
      "AEBODSYS": "GENERAL DISORDERS AND ADMINISTRATION SITE CONDITIONS",
      "AESOC": "GENERAL DISORDERS AND ADMINISTRATION SITE CONDITIONS",
      "AESOCCD": null,
      "AESEV": "MODERATE",
      "AESER": "N",
      "AESCAN": "N",
      "AESCONG": "N",
      "AESDISAB": "N",
      "AESDTH": "N",
      "AESHOSP": "N",
      "AESLIFE": "N",
      "AESOD": "N",
      "AEREL": "PROBABLE",
      "AEACN": "",
      "AEOUT": "NOT RECOVERED/NOT RESOLVED",
      "AESEQ": 5.0,
      "TRTEMFL": "Y",
      "AOCCFL": "",
      "AOCCSFL": "",
      "AOCCPFL": "",
      "AOCC02FL": "",
      "AOCC03FL": "",
      "AOCC04FL": "",
      "CQ01NAM": "DERMATOLOGIC EVENTS",
      "AOCC01FL": ""
    },
    {
      "STUDYID": "CDISCPILOT01",
      "SITEID": "701",
      "USUBJID": "01-701-1115",
      "TRTA": "Xanomeline Low Dose",
      "TRTAN": 54.0,
      "AGE": 84.0,
      "AGEGR1": ">80",
      "AGEGR1N": 3.0,
      "RACE": "WHITE",
      "RACEN": 1.0,
      "SEX": "M",
      "SAFFL": "Y",
      "TRTSDT": 19327.0,
      "TRTEDT": 19381.0,
      "ASTDT": 19329.0,
      "ASTDTF": "",
      "ASTDY": 3.0,
      "AENDT": NaN,
      "AENDY": NaN,
      "ADURN": NaN,
      "ADURU": "",
      "AETERM": "APPLICATION SITE PRURITUS",
      "AELLT": "APPLICATION SITE ITCHING",
      "AELLTCD": null,
      "AEDECOD": "APPLICATION SITE PRURITUS",
      "AEPTCD": null,
      "AEHLT": "HLT_0317",
      "AEHLTCD": null,
      "AEHLGT": "HLGT_0338",
      "AEHLGTCD": null,
      "AEBODSYS": "GENERAL DISORDERS AND ADMINISTRATION SITE CONDITIONS",
      "AESOC": "GENERAL DISORDERS AND ADMINISTRATION SITE CONDITIONS",
      "AESOCCD": null,
      "AESEV": "MODERATE",
      "AESER": "N",
      "AESCAN": "N",
      "AESCONG": "N",
      "AESDISAB": "N",
      "AESDTH": "N",
      "AESHOSP": "N",
      "AESLIFE": "N",
      "AESOD": "N",
      "AEREL": "PROBABLE",
      "AEACN": "",
      "AEOUT": "NOT RECOVERED/NOT RESOLVED",
      "AESEQ": 6.0,
      "TRTEMFL": "Y",
      "AOCCFL": "",
      "AOCCSFL": "",
      "AOCCPFL": "",
      "AOCC02FL": "",
      "AOCC03FL": "",
      "AOCC04FL": "",
      "CQ01NAM": "DERMATOLOGIC EVENTS",
      "AOCC01FL": ""
    },
    {
      "STUDYID": "CDISCPILOT01",
      "SITEID": "701",
      "USUBJID": "01-701-1115",
      "TRTA": "Xanomeline Low Dose",
      "TRTAN": 54.0,
      "AGE": 84.0,
      "AGEGR1": ">80",
      "AGEGR1N": 3.0,
      "RACE": "WHITE",
      "RACEN": 1.0,
      "SEX": "M",
      "SAFFL": "Y",
      "TRTSDT": 19327.0,
      "TRTEDT": 19381.0,
      "ASTDT": 19372.0,
      "ASTDTF": "",
      "ASTDY": 46.0,
      "AENDT": NaN,
      "AENDY": NaN,
      "ADURN": NaN,
      "ADURU": "",
      "AETERM": "FATIGUE",
      "AELLT": "FATIGUE",
      "AELLTCD": null,
      "AEDECOD": "FATIGUE",
      "AEPTCD": null,
      "AEHLT": "HLT_0043",
      "AEHLTCD": null,
      "AEHLGT": "HLGT_0181",
      "AEHLGTCD": null,
      "AEBODSYS": "GENERAL DISORDERS AND ADMINISTRATION SITE CONDITIONS",
      "AESOC": "GENERAL DISORDERS AND ADMINISTRATION SITE CONDITIONS",
      "AESOCCD": null,
      "AESEV": "MODERATE",
      "AESER": "N",
      "AESCAN": "N",
      "AESCONG": "N",
      "AESDISAB": "N",
      "AESDTH": "N",
      "AESHOSP": "N",
      "AESLIFE": "N",
      "AESOD": "N",
      "AEREL": "REMOTE",
      "AEACN": "",
      "AEOUT": "NOT RECOVERED/NOT RESOLVED",
      "AESEQ": 7.0,
      "TRTEMFL": "Y",
      "AOCCFL": "",
      "AOCCSFL": "",
      "AOCCPFL": "Y",
      "AOCC02FL": "",
      "AOCC03FL": "",
      "AOCC04FL": "",
      "CQ01NAM": "",
      "AOCC01FL": ""
    },
    {
      "STUDYID": "CDISCPILOT01",
      "SITEID": "701",
      "USUBJID": "01-701-1115",
      "TRTA": "Xanomeline Low Dose",
      "TRTAN": 54.0,
      "AGE": 84.0,
      "AGEGR1": ">80",
      "AGEGR1N": 3.0,
      "RACE": "WHITE",
      "RACEN": 1.0,
      "SEX": "M",
      "SAFFL": "Y",
      "TRTSDT": 19327.0,
      "TRTEDT": 19381.0,
      "ASTDT": 19377.0,
      "ASTDTF": "",
      "ASTDY": 51.0,
      "AENDT": NaN,
      "AENDY": NaN,
      "ADURN": NaN,
      "ADURU": "",
      "AETERM": "APPLICATION SITE IRRITATION",
      "AELLT": "APPLICATION SITE BURNING",
      "AELLTCD": null,
      "AEDECOD": "APPLICATION SITE IRRITATION",
      "AEPTCD": null,
      "AEHLT": "HLT_0061",
      "AEHLTCD": null,
      "AEHLGT": "HLGT_0346",
      "AEHLGTCD": null,
      "AEBODSYS": "GENERAL DISORDERS AND ADMINISTRATION SITE CONDITIONS",
      "AESOC": "GENERAL DISORDERS AND ADMINISTRATION SITE CONDITIONS",
      "AESOCCD": null,
      "AESEV": "MODERATE",
      "AESER": "N",
      "AESCAN": "N",
      "AESCONG": "N",
      "AESDISAB": "N",
      "AESDTH": "N",
      "AESHOSP": "N",
      "AESLIFE": "N",
      "AESOD": "N",
      "AEREL": "PROBABLE",
      "AEACN": "",
      "AEOUT": "NOT RECOVERED/NOT RESOLVED",
      "AESEQ": 8.0,
      "TRTEMFL": "Y",
      "AOCCFL": "",
      "AOCCSFL": "",
      "AOCCPFL": "",
      "AOCC02FL": "",
      "AOCC03FL": "",
      "AOCC04FL": "",
      "CQ01NAM": "DERMATOLOGIC EVENTS",
      "AOCC01FL": ""
    },
    {
      "STUDYID": "CDISCPILOT01",
      "SITEID": "701",
      "USUBJID": "01-701-1115",
      "TRTA": "Xanomeline Low Dose",
      "TRTAN": 54.0,
      "AGE": 84.0,
      "AGEGR1": ">80",
      "AGEGR1N": 3.0,
      "RACE": "WHITE",
      "RACEN": 1.0,
      "SEX": "M",
      "SAFFL": "Y",
      "TRTSDT": 19327.0,
      "TRTEDT": 19381.0,
      "ASTDT": 19377.0,
      "ASTDTF": "",
      "ASTDY": 51.0,
      "AENDT": NaN,
      "AENDY": NaN,
      "ADURN": NaN,
      "ADURU": "",
      "AETERM": "APPLICATION SITE DERMATITIS",
      "AELLT": "APPLICATION SITE RASH",
      "AELLTCD": null,
      "AEDECOD": "APPLICATION SITE DERMATITIS",
      "AEPTCD": null,
      "AEHLT": "HLT_0343",
      "AEHLTCD": null,
      "AEHLGT": "HLGT_0241",
      "AEHLGTCD": null,
      "AEBODSYS": "GENERAL DISORDERS AND ADMINISTRATION SITE CONDITIONS",
      "AESOC": "GENERAL DISORDERS AND ADMINISTRATION SITE CONDITIONS",
      "AESOCCD": null,
      "AESEV": "MODERATE",
      "AESER": "N",
      "AESCAN": "N",
      "AESCONG": "N",
      "AESDISAB": "N",
      "AESDTH": "N",
      "AESHOSP": "N",
      "AESLIFE": "N",
      "AESOD": "N",
      "AEREL": "PROBABLE",
      "AEACN": "",
      "AEOUT": "NOT RECOVERED/NOT RESOLVED",
      "AESEQ": 9.0,
      "TRTEMFL": "Y",
      "AOCCFL": "",
      "AOCCSFL": "",
      "AOCCPFL": "Y",
      "AOCC02FL": "",
      "AOCC03FL": "",
      "AOCC04FL": "",
      "CQ01NAM": "DERMATOLOGIC EVENTS",
      "AOCC01FL": ""
    },
    {
      "STUDYID": "CDISCPILOT01",
      "SITEID": "701",
      "USUBJID": "01-701-1118",
      "TRTA": "Placebo",
      "TRTAN": 5.397605346934028e-79,
      "AGE": 52.0,
      "AGEGR1": "<65",
      "AGEGR1N": 1.0,
      "RACE": "WHITE",
      "RACEN": 1.0,
      "SEX": "M",
      "SAFFL": "Y",
      "TRTSDT": 19794.0,
      "TRTEDT": 19975.0,
      "ASTDT": NaN,
      "ASTDTF": "",
      "ASTDY": NaN,
      "AENDT": NaN,
      "AENDY": NaN,
      "ADURN": NaN,
      "ADURU": "",
      "AETERM": "COUGH",
      "AELLT": "COUGH",
      "AELLTCD": null,
      "AEDECOD": "COUGH",
      "AEPTCD": null,
      "AEHLT": "HLT_0701",
      "AEHLTCD": null,
      "AEHLGT": "HLGT_0280",
      "AEHLGTCD": null,
      "AEBODSYS": "RESPIRATORY, THORACIC AND MEDIASTINAL DISORDERS",
      "AESOC": "RESPIRATORY, THORACIC AND MEDIASTINAL DISORDERS",
      "AESOCCD": null,
      "AESEV": "MILD",
      "AESER": "N",
      "AESCAN": "N",
      "AESCONG": "N",
      "AESDISAB": "N",
      "AESDTH": "N",
      "AESHOSP": "N",
      "AESLIFE": "N",
      "AESOD": "N",
      "AEREL": "NONE",
      "AEACN": "",
      "AEOUT": "NOT RECOVERED/NOT RESOLVED",
      "AESEQ": 1.0,
      "TRTEMFL": "",
      "AOCCFL": "",
      "AOCCSFL": "",
      "AOCCPFL": "",
      "AOCC02FL": "",
      "AOCC03FL": "",
      "AOCC04FL": "",
      "CQ01NAM": "",
      "AOCC01FL": ""
    },
    {
      "STUDYID": "CDISCPILOT01",
      "SITEID": "701",
      "USUBJID": "01-701-1130",
      "TRTA": "Placebo",
      "TRTAN": 5.397605346934028e-79,
      "AGE": 84.0,
      "AGEGR1": ">80",
      "AGEGR1N": 3.0,
      "RACE": "WHITE",
      "RACEN": 1.0,
      "SEX": "M",
      "SAFFL": "Y",
      "TRTSDT": 19769.0,
      "TRTEDT": 19951.0,
      "ASTDT": 19791.0,
      "ASTDTF": "",
      "ASTDY": 23.0,
      "AENDT": 19798.0,
      "AENDY": 30.0,
      "ADURN": 8.0,
      "ADURU": "DAY",
      "AETERM": "URINARY TRACT INFECTION",
      "AELLT": "URINARY TRACT INFECTION",
      "AELLTCD": null,
      "AEDECOD": "URINARY TRACT INFECTION",
      "AEPTCD": null,
      "AEHLT": "HLT_0161",
      "AEHLTCD": null,
      "AEHLGT": "HLGT_0093",
      "AEHLGTCD": null,
      "AEBODSYS": "INFECTIONS AND INFESTATIONS",
      "AESOC": "INFECTIONS AND INFESTATIONS",
      "AESOCCD": null,
      "AESEV": "MILD",
      "AESER": "N",
      "AESCAN": "N",
      "AESCONG": "N",
      "AESDISAB": "N",
      "AESDTH": "N",
      "AESHOSP": "N",
      "AESLIFE": "N",
      "AESOD": "N",
      "AEREL": "NONE",
      "AEACN": "",
      "AEOUT": "NOT RECOVERED/NOT RESOLVED",
      "AESEQ": 1.0,
      "TRTEMFL": "Y",
      "AOCCFL": "Y",
      "AOCCSFL": "Y",
      "AOCCPFL": "Y",
      "AOCC02FL": "",
      "AOCC03FL": "",
      "AOCC04FL": "",
      "CQ01NAM": "",
      "AOCC01FL": ""
    },
    {
      "STUDYID": "CDISCPILOT01",
      "SITEID": "701",
      "USUBJID": "01-701-1130",
      "TRTA": "Placebo",
      "TRTAN": 5.397605346934028e-79,
      "AGE": 84.0,
      "AGEGR1": ">80",
      "AGEGR1N": 3.0,
      "RACE": "WHITE",
      "RACEN": 1.0,
      "SEX": "M",
      "SAFFL": "Y",
      "TRTSDT": 19769.0,
      "TRTEDT": 19951.0,
      "ASTDT": 19791.0,
      "ASTDTF": "",
      "ASTDY": 23.0,
      "AENDT": 19791.0,
      "AENDY": 23.0,
      "ADURN": 1.0,
      "ADURU": "DAY",
      "AETERM": "PYREXIA",
      "AELLT": "FEVER",
      "AELLTCD": null,
      "AEDECOD": "PYREXIA",
      "AEPTCD": null,
      "AEHLT": "HLT_0310",
      "AEHLTCD": null,
      "AEHLGT": "HLGT_0652",
      "AEHLGTCD": null,
      "AEBODSYS": "GENERAL DISORDERS AND ADMINISTRATION SITE CONDITIONS",
      "AESOC": "GENERAL DISORDERS AND ADMINISTRATION SITE CONDITIONS",
      "AESOCCD": null,
      "AESEV": "MILD",
      "AESER": "N",
      "AESCAN": "N",
      "AESCONG": "N",
      "AESDISAB": "N",
      "AESDTH": "N",
      "AESHOSP": "N",
      "AESLIFE": "N",
      "AESOD": "N",
      "AEREL": "NONE",
      "AEACN": "",
      "AEOUT": "RECOVERED/RESOLVED",
      "AESEQ": 2.0,
      "TRTEMFL": "Y",
      "AOCCFL": "",
      "AOCCSFL": "Y",
      "AOCCPFL": "Y",
      "AOCC02FL": "",
      "AOCC03FL": "",
      "AOCC04FL": "",
      "CQ01NAM": "",
      "AOCC01FL": ""
    },
    {
      "STUDYID": "CDISCPILOT01",
      "SITEID": "701",
      "USUBJID": "01-701-1130",
      "TRTA": "Placebo",
      "TRTAN": 5.397605346934028e-79,
      "AGE": 84.0,
      "AGEGR1": ">80",
      "AGEGR1N": 3.0,
      "RACE": "WHITE",
      "RACEN": 1.0,
      "SEX": "M",
      "SAFFL": "Y",
      "TRTSDT": 19769.0,
      "TRTEDT": 19951.0,
      "ASTDT": 19791.0,
      "ASTDTF": "",
      "ASTDY": 23.0,
      "AENDT": 19798.0,
      "AENDY": 30.0,
      "ADURN": 8.0,
      "ADURU": "DAY",
      "AETERM": "URINARY TRACT INFECTION",
      "AELLT": "URINARY TRACT INFECTION",
      "AELLTCD": null,
      "AEDECOD": "URINARY TRACT INFECTION",
      "AEPTCD": null,
      "AEHLT": "HLT_0161",
      "AEHLTCD": null,
      "AEHLGT": "HLGT_0093",
      "AEHLGTCD": null,
      "AEBODSYS": "INFECTIONS AND INFESTATIONS",
      "AESOC": "INFECTIONS AND INFESTATIONS",
      "AESOCCD": null,
      "AESEV": "MILD",
      "AESER": "N",
      "AESCAN": "N",
      "AESCONG": "N",
      "AESDISAB": "N",
      "AESDTH": "N",
      "AESHOSP": "N",
      "AESLIFE": "N",
      "AESOD": "N",
      "AEREL": "NONE",
      "AEACN": "",
      "AEOUT": "RECOVERED/RESOLVED",
      "AESEQ": 3.0,
      "TRTEMFL": "Y",
      "AOCCFL": "",
      "AOCCSFL": "",
      "AOCCPFL": "",
      "AOCC02FL": "",
      "AOCC03FL": "",
      "AOCC04FL": "",
      "CQ01NAM": "",
      "AOCC01FL": ""
    },
    {
      "STUDYID": "CDISCPILOT01",
      "SITEID": "701",
      "USUBJID": "01-701-1130",
      "TRTA": "Placebo",
      "TRTAN": 5.397605346934028e-79,
      "AGE": 84.0,
      "AGEGR1": ">80",
      "AGEGR1N": 3.0,
      "RACE": "WHITE",
      "RACEN": 1.0,
      "SEX": "M",
      "SAFFL": "Y",
      "TRTSDT": 19769.0,
      "TRTEDT": 19951.0,
      "ASTDT": 19852.0,
      "ASTDTF": "",
      "ASTDY": 84.0,
      "AENDT": 19852.0,
      "AENDY": 84.0,
      "ADURN": 1.0,
      "ADURU": "DAY",
      "AETERM": "EYE SWELLING",
      "AELLT": "EYES SWOLLEN",
      "AELLTCD": null,
      "AEDECOD": "EYE SWELLING",
      "AEPTCD": null,
      "AEHLT": "HLT_0008",
      "AEHLTCD": null,
      "AEHLGT": "HLGT_0466",
      "AEHLGTCD": null,
      "AEBODSYS": "EYE DISORDERS",
      "AESOC": "EYE DISORDERS",
      "AESOCCD": null,
      "AESEV": "MILD",
      "AESER": "N",
      "AESCAN": "N",
      "AESCONG": "N",
      "AESDISAB": "N",
      "AESDTH": "N",
      "AESHOSP": "N",
      "AESLIFE": "N",
      "AESOD": "N",
      "AEREL": "NONE",
      "AEACN": "",
      "AEOUT": "RECOVERED/RESOLVED",
      "AESEQ": 4.0,
      "TRTEMFL": "Y",
      "AOCCFL": "",
      "AOCCSFL": "Y",
      "AOCCPFL": "Y",
      "AOCC02FL": "",
      "AOCC03FL": "",
      "AOCC04FL": "",
      "CQ01NAM": "",
      "AOCC01FL": ""
    },
    {
      "STUDYID": "CDISCPILOT01",
      "SITEID": "701",
      "USUBJID": "01-701-1130",
      "TRTA": "Placebo",
      "TRTAN": 5.397605346934028e-79,
      "AGE": 84.0,
      "AGEGR1": ">80",
      "AGEGR1N": 3.0,
      "RACE": "WHITE",
      "RACEN": 1.0,
      "SEX": "M",
      "SAFFL": "Y",
      "TRTSDT": 19769.0,
      "TRTEDT": 19951.0,
      "ASTDT": 19852.0,
      "ASTDTF": "",
      "ASTDY": 84.0,
      "AENDT": 19852.0,
      "AENDY": 84.0,
      "ADURN": 1.0,
      "ADURU": "DAY",
      "AETERM": "EYE ALLERGY",
      "AELLT": "EYE ALLERGY",
      "AELLTCD": null,
      "AEDECOD": "EYE ALLERGY",
      "AEPTCD": null,
      "AEHLT": "HLT_0256",
      "AEHLTCD": null,
      "AEHLGT": "HLGT_0071",
      "AEHLGTCD": null,
      "AEBODSYS": "EYE DISORDERS",
      "AESOC": "EYE DISORDERS",
      "AESOCCD": null,
      "AESEV": "MILD",
      "AESER": "N",
      "AESCAN": "N",
      "AESCONG": "N",
      "AESDISAB": "N",
      "AESDTH": "N",
      "AESHOSP": "N",
      "AESLIFE": "N",
      "AESOD": "N",
      "AEREL": "NONE",
      "AEACN": "",
      "AEOUT": "RECOVERED/RESOLVED",
      "AESEQ": 5.0,
      "TRTEMFL": "Y",
      "AOCCFL": "",
      "AOCCSFL": "",
      "AOCCPFL": "Y",
      "AOCC02FL": "",
      "AOCC03FL": "",
      "AOCC04FL": "",
      "CQ01NAM": "",
      "AOCC01FL": ""
    },
    {
      "STUDYID": "CDISCPILOT01",
      "SITEID": "701",
      "USUBJID": "01-701-1130",
      "TRTA": "Placebo",
      "TRTAN": 5.397605346934028e-79,
      "AGE": 84.0,
      "AGEGR1": ">80",
      "AGEGR1N": 3.0,
      "RACE": "WHITE",
      "RACEN": 1.0,
      "SEX": "M",
      "SAFFL": "Y",
      "TRTSDT": 19769.0,
      "TRTEDT": 19951.0,
      "ASTDT": 19865.0,
      "ASTDTF": "",
      "ASTDY": 97.0,
      "AENDT": NaN,
      "AENDY": NaN,
      "ADURN": NaN,
      "ADURU": "",
      "AETERM": "EYE PRURITUS",
      "AELLT": "EYE ITCHING",
      "AELLTCD": null,
      "AEDECOD": "EYE PRURITUS",
      "AEPTCD": null,
      "AEHLT": "HLT_0523",
      "AEHLTCD": null,
      "AEHLGT": "HLGT_0240",
      "AEHLGTCD": null,
      "AEBODSYS": "EYE DISORDERS",
      "AESOC": "EYE DISORDERS",
      "AESOCCD": null,
      "AESEV": "MILD",
      "AESER": "N",
      "AESCAN": "N",
      "AESCONG": "N",
      "AESDISAB": "N",
      "AESDTH": "N",
      "AESHOSP": "N",
      "AESLIFE": "N",
      "AESOD": "N",
      "AEREL": "REMOTE",
      "AEACN": "",
      "AEOUT": "NOT RECOVERED/NOT RESOLVED",
      "AESEQ": 6.0,
      "TRTEMFL": "Y",
      "AOCCFL": "",
      "AOCCSFL": "",
      "AOCCPFL": "Y",
      "AOCC02FL": "",
      "AOCC03FL": "",
      "AOCC04FL": "",
      "CQ01NAM": "",
      "AOCC01FL": ""
    },
    {
      "STUDYID": "CDISCPILOT01",
      "SITEID": "701",
      "USUBJID": "01-701-1130",
      "TRTA": "Placebo",
      "TRTAN": 5.397605346934028e-79,
      "AGE": 84.0,
      "AGEGR1": ">80",
      "AGEGR1N": 3.0,
      "RACE": "WHITE",
      "RACEN": 1.0,
      "SEX": "M",
      "SAFFL": "Y",
      "TRTSDT": 19769.0,
      "TRTEDT": 19951.0,
      "ASTDT": 19865.0,
      "ASTDTF": "",
      "ASTDY": 97.0,
      "AENDT": NaN,
      "AENDY": NaN,
      "ADURN": NaN,
      "ADURU": "",
      "AETERM": "PRURITUS",
      "AELLT": "ITCHING BOTH HANDS",
      "AELLTCD": null,
      "AEDECOD": "PRURITUS",
      "AEPTCD": null,
      "AEHLT": "HLT_0778",
      "AEHLTCD": null,
      "AEHLGT": "HLGT_0695",
      "AEHLGTCD": null,
      "AEBODSYS": "SKIN AND SUBCUTANEOUS TISSUE DISORDERS",
      "AESOC": "SKIN AND SUBCUTANEOUS TISSUE DISORDERS",
      "AESOCCD": null,
      "AESEV": "MILD",
      "AESER": "N",
      "AESCAN": "N",
      "AESCONG": "N",
      "AESDISAB": "N",
      "AESDTH": "N",
      "AESHOSP": "N",
      "AESLIFE": "N",
      "AESOD": "N",
      "AEREL": "REMOTE",
      "AEACN": "",
      "AEOUT": "NOT RECOVERED/NOT RESOLVED",
      "AESEQ": 7.0,
      "TRTEMFL": "Y",
      "AOCCFL": "",
      "AOCCSFL": "Y",
      "AOCCPFL": "Y",
      "AOCC02FL": "",
      "AOCC03FL": "",
      "AOCC04FL": "",
      "CQ01NAM": "DERMATOLOGIC EVENTS",
      "AOCC01FL": "Y"
    },
    {
      "STUDYID": "CDISCPILOT01",
      "SITEID": "701",
      "USUBJID": "01-701-1130",
      "TRTA": "Placebo",
      "TRTAN": 5.397605346934028e-79,
      "AGE": 84.0,
      "AGEGR1": ">80",
      "AGEGR1N": 3.0,
      "RACE": "WHITE",
      "RACEN": 1.0,
      "SEX": "M",
      "SAFFL": "Y",
      "TRTSDT": 19769.0,
      "TRTEDT": 19951.0,
      "ASTDT": 19865.0,
      "ASTDTF": "",
      "ASTDY": 97.0,
      "AENDT": NaN,
      "AENDY": NaN,
      "ADURN": NaN,
      "ADURU": "",
      "AETERM": "NASAL CONGESTION",
      "AELLT": "NASAL CONGESTION",
      "AELLTCD": null,
      "AEDECOD": "NASAL CONGESTION",
      "AEPTCD": null,
      "AEHLT": "HLT_0118",
      "AEHLTCD": null,
      "AEHLGT": "HLGT_0549",
      "AEHLGTCD": null,
      "AEBODSYS": "RESPIRATORY, THORACIC AND MEDIASTINAL DISORDERS",
      "AESOC": "RESPIRATORY, THORACIC AND MEDIASTINAL DISORDERS",
      "AESOCCD": null,
      "AESEV": "MILD",
      "AESER": "N",
      "AESCAN": "N",
      "AESCONG": "N",
      "AESDISAB": "N",
      "AESDTH": "N",
      "AESHOSP": "N",
      "AESLIFE": "N",
      "AESOD": "N",
      "AEREL": "REMOTE",
      "AEACN": "",
      "AEOUT": "NOT RECOVERED/NOT RESOLVED",
      "AESEQ": 8.0,
      "TRTEMFL": "Y",
      "AOCCFL": "",
      "AOCCSFL": "Y",
      "AOCCPFL": "Y",
      "AOCC02FL": "",
      "AOCC03FL": "",
      "AOCC04FL": "",
      "CQ01NAM": "",
      "AOCC01FL": ""
    },
    {
      "STUDYID": "CDISCPILOT01",
      "SITEID": "701",
      "USUBJID": "01-701-1133",
      "TRTA": "Xanomeline High Dose",
      "TRTAN": 81.0,
      "AGE": 81.0,
      "AGEGR1": ">80",
      "AGEGR1N": 3.0,
      "RACE": "WHITE",
      "RACEN": 1.0,
      "SEX": "F",
      "SAFFL": "Y",
      "TRTSDT": 19294.0,
      "TRTEDT": 19476.0,
      "ASTDT": 19354.0,
      "ASTDTF": "",
      "ASTDY": 61.0,
      "AENDT": NaN,
      "AENDY": NaN,
      "ADURN": NaN,
      "ADURU": "",
      "AETERM": "APPLICATION SITE ERYTHEMA",
      "AELLT": "APPLICATION SITE REDNESS",
      "AELLTCD": null,
      "AEDECOD": "APPLICATION SITE ERYTHEMA",
      "AEPTCD": null,
      "AEHLT": "HLT_0617",
      "AEHLTCD": null,
      "AEHLGT": "HLGT_0152",
      "AEHLGTCD": null,
      "AEBODSYS": "GENERAL DISORDERS AND ADMINISTRATION SITE CONDITIONS",
      "AESOC": "GENERAL DISORDERS AND ADMINISTRATION SITE CONDITIONS",
      "AESOCCD": null,
      "AESEV": "MILD",
      "AESER": "N",
      "AESCAN": "N",
      "AESCONG": "N",
      "AESDISAB": "N",
      "AESDTH": "N",
      "AESHOSP": "N",
      "AESLIFE": "N",
      "AESOD": "N",
      "AEREL": "PROBABLE",
      "AEACN": "",
      "AEOUT": "NOT RECOVERED/NOT RESOLVED",
      "AESEQ": 1.0,
      "TRTEMFL": "Y",
      "AOCCFL": "Y",
      "AOCCSFL": "Y",
      "AOCCPFL": "Y",
      "AOCC02FL": "",
      "AOCC03FL": "",
      "AOCC04FL": "",
      "CQ01NAM": "DERMATOLOGIC EVENTS",
      "AOCC01FL": "Y"
    },
    {
      "STUDYID": "CDISCPILOT01",
      "SITEID": "701",
      "USUBJID": "01-701-1133",
      "TRTA": "Xanomeline High Dose",
      "TRTAN": 81.0,
      "AGE": 81.0,
      "AGEGR1": ">80",
      "AGEGR1N": 3.0,
      "RACE": "WHITE",
      "RACEN": 1.0,
      "SEX": "F",
      "SAFFL": "Y",
      "TRTSDT": 19294.0,
      "TRTEDT": 19476.0,
      "ASTDT": 19354.0,
      "ASTDTF": "",
      "ASTDY": 61.0,
      "AENDT": NaN,
      "AENDY": NaN,
      "ADURN": NaN,
      "ADURU": "",
      "AETERM": "APPLICATION SITE PRURITUS",
      "AELLT": "APPLICATION SITE ITCHING",
      "AELLTCD": null,
      "AEDECOD": "APPLICATION SITE PRURITUS",
      "AEPTCD": null,
      "AEHLT": "HLT_0317",
      "AEHLTCD": null,
      "AEHLGT": "HLGT_0338",
      "AEHLGTCD": null,
      "AEBODSYS": "GENERAL DISORDERS AND ADMINISTRATION SITE CONDITIONS",
      "AESOC": "GENERAL DISORDERS AND ADMINISTRATION SITE CONDITIONS",
      "AESOCCD": null,
      "AESEV": "MILD",
      "AESER": "N",
      "AESCAN": "N",
      "AESCONG": "N",
      "AESDISAB": "N",
      "AESDTH": "N",
      "AESHOSP": "N",
      "AESLIFE": "N",
      "AESOD": "N",
      "AEREL": "PROBABLE",
      "AEACN": "",
      "AEOUT": "NOT RECOVERED/NOT RESOLVED",
      "AESEQ": 2.0,
      "TRTEMFL": "Y",
      "AOCCFL": "",
      "AOCCSFL": "",
      "AOCCPFL": "Y",
      "AOCC02FL": "",
      "AOCC03FL": "",
      "AOCC04FL": "",
      "CQ01NAM": "DERMATOLOGIC EVENTS",
      "AOCC01FL": ""
    },
    {
      "STUDYID": "CDISCPILOT01",
      "SITEID": "701",
      "USUBJID": "01-701-1133",
      "TRTA": "Xanomeline High Dose",
      "TRTAN": 81.0,
      "AGE": 81.0,
      "AGEGR1": ">80",
      "AGEGR1N": 3.0,
      "RACE": "WHITE",
      "RACEN": 1.0,
      "SEX": "F",
      "SAFFL": "Y",
      "TRTSDT": 19294.0,
      "TRTEDT": 19476.0,
      "ASTDT": 19354.0,
      "ASTDTF": "",
      "ASTDY": 61.0,
      "AENDT": NaN,
      "AENDY": NaN,
      "ADURN": NaN,
      "ADURU": "",
      "AETERM": "APPLICATION SITE ERYTHEMA",
      "AELLT": "APPLICATION SITE REDNESS",
      "AELLTCD": null,
      "AEDECOD": "APPLICATION SITE ERYTHEMA",
      "AEPTCD": null,
      "AEHLT": "HLT_0617",
      "AEHLTCD": null,
      "AEHLGT": "HLGT_0152",
      "AEHLGTCD": null,
      "AEBODSYS": "GENERAL DISORDERS AND ADMINISTRATION SITE CONDITIONS",
      "AESOC": "GENERAL DISORDERS AND ADMINISTRATION SITE CONDITIONS",
      "AESOCCD": null,
      "AESEV": "MODERATE",
      "AESER": "N",
      "AESCAN": "N",
      "AESCONG": "N",
      "AESDISAB": "N",
      "AESDTH": "N",
      "AESHOSP": "N",
      "AESLIFE": "N",
      "AESOD": "N",
      "AEREL": "PROBABLE",
      "AEACN": "",
      "AEOUT": "NOT RECOVERED/NOT RESOLVED",
      "AESEQ": 3.0,
      "TRTEMFL": "Y",
      "AOCCFL": "",
      "AOCCSFL": "",
      "AOCCPFL": "",
      "AOCC02FL": "",
      "AOCC03FL": "",
      "AOCC04FL": "",
      "CQ01NAM": "DERMATOLOGIC EVENTS",
      "AOCC01FL": ""
    },
    {
      "STUDYID": "CDISCPILOT01",
      "SITEID": "701",
      "USUBJID": "01-701-1133",
      "TRTA": "Xanomeline High Dose",
      "TRTAN": 81.0,
      "AGE": 81.0,
      "AGEGR1": ">80",
      "AGEGR1N": 3.0,
      "RACE": "WHITE",
      "RACEN": 1.0,
      "SEX": "F",
      "SAFFL": "Y",
      "TRTSDT": 19294.0,
      "TRTEDT": 19476.0,
      "ASTDT": 19354.0,
      "ASTDTF": "",
      "ASTDY": 61.0,
      "AENDT": NaN,
      "AENDY": NaN,
      "ADURN": NaN,
      "ADURU": "",
      "AETERM": "APPLICATION SITE PRURITUS",
      "AELLT": "APPLICATION SITE ITCHING",
      "AELLTCD": null,
      "AEDECOD": "APPLICATION SITE PRURITUS",
      "AEPTCD": null,
      "AEHLT": "HLT_0317",
      "AEHLTCD": null,
      "AEHLGT": "HLGT_0338",
      "AEHLGTCD": null,
      "AEBODSYS": "GENERAL DISORDERS AND ADMINISTRATION SITE CONDITIONS",
      "AESOC": "GENERAL DISORDERS AND ADMINISTRATION SITE CONDITIONS",
      "AESOCCD": null,
      "AESEV": "MODERATE",
      "AESER": "N",
      "AESCAN": "N",
      "AESCONG": "N",
      "AESDISAB": "N",
      "AESDTH": "N",
      "AESHOSP": "N",
      "AESLIFE": "N",
      "AESOD": "N",
      "AEREL": "PROBABLE",
      "AEACN": "",
      "AEOUT": "NOT RECOVERED/NOT RESOLVED",
      "AESEQ": 4.0,
      "TRTEMFL": "Y",
      "AOCCFL": "",
      "AOCCSFL": "",
      "AOCCPFL": "",
      "AOCC02FL": "",
      "AOCC03FL": "",
      "AOCC04FL": "",
      "CQ01NAM": "DERMATOLOGIC EVENTS",
      "AOCC01FL": ""
    },
    {
      "STUDYID": "CDISCPILOT01",
      "SITEID": "701",
      "USUBJID": "01-701-1146",
      "TRTA": "Xanomeline High Dose",
      "TRTAN": 81.0,
      "AGE": 75.0,
      "AGEGR1": "65-80",
      "AGEGR1N": 2.0,
      "RACE": "WHITE",
      "RACEN": 1.0,
      "SEX": "F",
      "SAFFL": "Y",
      "TRTSDT": 19498.0,
      "TRTEDT": 19535.0,
      "ASTDT": 19494.0,
      "ASTDTF": "",
      "ASTDY": -4.0,
      "AENDT": 19511.0,
      "AENDY": 14.0,
      "ADURN": 18.0,
      "ADURU": "DAY",
      "AETERM": "RASH",
      "AELLT": "RASH",
      "AELLTCD": null,
      "AEDECOD": "RASH",
      "AEPTCD": null,
      "AEHLT": "HLT_0762",
      "AEHLTCD": null,
      "AEHLGT": "HLGT_0198",
      "AEHLGTCD": null,
      "AEBODSYS": "SKIN AND SUBCUTANEOUS TISSUE DISORDERS",
      "AESOC": "SKIN AND SUBCUTANEOUS TISSUE DISORDERS",
      "AESOCCD": null,
      "AESEV": "MILD",
      "AESER": "N",
      "AESCAN": "N",
      "AESCONG": "N",
      "AESDISAB": "N",
      "AESDTH": "N",
      "AESHOSP": "N",
      "AESLIFE": "N",
      "AESOD": "N",
      "AEREL": "NONE",
      "AEACN": "",
      "AEOUT": "NOT RECOVERED/NOT RESOLVED",
      "AESEQ": 1.0,
      "TRTEMFL": "",
      "AOCCFL": "",
      "AOCCSFL": "",
      "AOCCPFL": "",
      "AOCC02FL": "",
      "AOCC03FL": "",
      "AOCC04FL": "",
      "CQ01NAM": "DERMATOLOGIC EVENTS",
      "AOCC01FL": ""
    },
    {
      "STUDYID": "CDISCPILOT01",
      "SITEID": "701",
      "USUBJID": "01-701-1146",
      "TRTA": "Xanomeline High Dose",
      "TRTAN": 81.0,
      "AGE": 75.0,
      "AGEGR1": "65-80",
      "AGEGR1N": 2.0,
      "RACE": "WHITE",
      "RACEN": 1.0,
      "SEX": "F",
      "SAFFL": "Y",
      "TRTSDT": 19498.0,
      "TRTEDT": 19535.0,
      "ASTDT": 19494.0,
      "ASTDTF": "",
      "ASTDY": -4.0,
      "AENDT": 19511.0,
      "AENDY": 14.0,
      "ADURN": 18.0,
      "ADURU": "DAY",
      "AETERM": "RASH",
      "AELLT": "RASH",
      "AELLTCD": null,
      "AEDECOD": "RASH",
      "AEPTCD": null,
      "AEHLT": "HLT_0762",
      "AEHLTCD": null,
      "AEHLGT": "HLGT_0198",
      "AEHLGTCD": null,
      "AEBODSYS": "SKIN AND SUBCUTANEOUS TISSUE DISORDERS",
      "AESOC": "SKIN AND SUBCUTANEOUS TISSUE DISORDERS",
      "AESOCCD": null,
      "AESEV": "MILD",
      "AESER": "N",
      "AESCAN": "N",
      "AESCONG": "N",
      "AESDISAB": "N",
      "AESDTH": "N",
      "AESHOSP": "N",
      "AESLIFE": "N",
      "AESOD": "N",
      "AEREL": "NONE",
      "AEACN": "",
      "AEOUT": "RECOVERED/RESOLVED",
      "AESEQ": 2.0,
      "TRTEMFL": "",
      "AOCCFL": "",
      "AOCCSFL": "",
      "AOCCPFL": "",
      "AOCC02FL": "",
      "AOCC03FL": "",
      "AOCC04FL": "",
      "CQ01NAM": "DERMATOLOGIC EVENTS",
      "AOCC01FL": ""
    },
    {
      "STUDYID": "CDISCPILOT01",
      "SITEID": "701",
      "USUBJID": "01-701-1146",
      "TRTA": "Xanomeline High Dose",
      "TRTAN": 81.0,
      "AGE": 75.0,
      "AGEGR1": "65-80",
      "AGEGR1N": 2.0,
      "RACE": "WHITE",
      "RACEN": 1.0,
      "SEX": "F",
      "SAFFL": "Y",
      "TRTSDT": 19498.0,
      "TRTEDT": 19535.0,
      "ASTDT": 19510.0,
      "ASTDTF": "",
      "ASTDY": 13.0,
      "AENDT": 19511.0,
      "AENDY": 14.0,
      "ADURN": 2.0,
      "ADURU": "DAY",
      "AETERM": "APPLICATION SITE IRRITATION",
      "AELLT": "APPLICATION SITE IRRITATION",
      "AELLTCD": null,
      "AEDECOD": "APPLICATION SITE IRRITATION",
      "AEPTCD": null,
      "AEHLT": "HLT_0061",
      "AEHLTCD": null,
      "AEHLGT": "HLGT_0346",
      "AEHLGTCD": null,
      "AEBODSYS": "GENERAL DISORDERS AND ADMINISTRATION SITE CONDITIONS",
      "AESOC": "GENERAL DISORDERS AND ADMINISTRATION SITE CONDITIONS",
      "AESOCCD": null,
      "AESEV": "MILD",
      "AESER": "N",
      "AESCAN": "N",
      "AESCONG": "N",
      "AESDISAB": "N",
      "AESDTH": "N",
      "AESHOSP": "N",
      "AESLIFE": "N",
      "AESOD": "N",
      "AEREL": "PROBABLE",
      "AEACN": "",
      "AEOUT": "RECOVERED/RESOLVED",
      "AESEQ": 3.0,
      "TRTEMFL": "Y",
      "AOCCFL": "Y",
      "AOCCSFL": "Y",
      "AOCCPFL": "Y",
      "AOCC02FL": "",
      "AOCC03FL": "",
      "AOCC04FL": "",
      "CQ01NAM": "DERMATOLOGIC EVENTS",
      "AOCC01FL": "Y"
    },
    {
      "STUDYID": "CDISCPILOT01",
      "SITEID": "701",
      "USUBJID": "01-701-1146",
      "TRTA": "Xanomeline High Dose",
      "TRTAN": 81.0,
      "AGE": 75.0,
      "AGEGR1": "65-80",
      "AGEGR1N": 2.0,
      "RACE": "WHITE",
      "RACEN": 1.0,
      "SEX": "F",
      "SAFFL": "Y",
      "TRTSDT": 19498.0,
      "TRTEDT": 19535.0,
      "ASTDT": 19512.0,
      "ASTDTF": "",
      "ASTDY": 15.0,
      "AENDT": NaN,
      "AENDY": NaN,
      "ADURN": NaN,
      "ADURU": "",
      "AETERM": "FATIGUE",
      "AELLT": "FATIGUE",
      "AELLTCD": null,
      "AEDECOD": "FATIGUE",
      "AEPTCD": null,
      "AEHLT": "HLT_0043",
      "AEHLTCD": null,
      "AEHLGT": "HLGT_0181",
      "AEHLGTCD": null,
      "AEBODSYS": "GENERAL DISORDERS AND ADMINISTRATION SITE CONDITIONS",
      "AESOC": "GENERAL DISORDERS AND ADMINISTRATION SITE CONDITIONS",
      "AESOCCD": null,
      "AESEV": "MILD",
      "AESER": "N",
      "AESCAN": "N",
      "AESCONG": "N",
      "AESDISAB": "N",
      "AESDTH": "N",
      "AESHOSP": "N",
      "AESLIFE": "N",
      "AESOD": "N",
      "AEREL": "POSSIBLE",
      "AEACN": "",
      "AEOUT": "NOT RECOVERED/NOT RESOLVED",
      "AESEQ": 4.0,
      "TRTEMFL": "Y",
      "AOCCFL": "",
      "AOCCSFL": "",
      "AOCCPFL": "Y",
      "AOCC02FL": "",
      "AOCC03FL": "",
      "AOCC04FL": "",
      "CQ01NAM": "",
      "AOCC01FL": ""
    },
    {
      "STUDYID": "CDISCPILOT01",
      "SITEID": "701",
      "USUBJID": "01-701-1146",
      "TRTA": "Xanomeline High Dose",
      "TRTAN": 81.0,
      "AGE": 75.0,
      "AGEGR1": "65-80",
      "AGEGR1N": 2.0,
      "RACE": "WHITE",
      "RACEN": 1.0,
      "SEX": "F",
      "SAFFL": "Y",
      "TRTSDT": 19498.0,
      "TRTEDT": 19535.0,
      "ASTDT": 19519.0,
      "ASTDTF": "",
      "ASTDY": 22.0,
      "AENDT": NaN,
      "AENDY": NaN,
      "ADURN": NaN,
      "ADURU": "",
      "AETERM": "APPLICATION SITE ERYTHEMA",
      "AELLT": "APPLICATION SITE ERYTHEMA",
      "AELLTCD": null,
      "AEDECOD": "APPLICATION SITE ERYTHEMA",
      "AEPTCD": null,
      "AEHLT": "HLT_0617",
      "AEHLTCD": null,
      "AEHLGT": "HLGT_0152",
      "AEHLGTCD": null,
      "AEBODSYS": "GENERAL DISORDERS AND ADMINISTRATION SITE CONDITIONS",
      "AESOC": "GENERAL DISORDERS AND ADMINISTRATION SITE CONDITIONS",
      "AESOCCD": null,
      "AESEV": "MILD",
      "AESER": "N",
      "AESCAN": "N",
      "AESCONG": "N",
      "AESDISAB": "N",
      "AESDTH": "N",
      "AESHOSP": "N",
      "AESLIFE": "N",
      "AESOD": "N",
      "AEREL": "PROBABLE",
      "AEACN": "",
      "AEOUT": "NOT RECOVERED/NOT RESOLVED",
      "AESEQ": 5.0,
      "TRTEMFL": "Y",
      "AOCCFL": "",
      "AOCCSFL": "",
      "AOCCPFL": "Y",
      "AOCC02FL": "",
      "AOCC03FL": "",
      "AOCC04FL": "",
      "CQ01NAM": "DERMATOLOGIC EVENTS",
      "AOCC01FL": ""
    },
    {
      "STUDYID": "CDISCPILOT01",
      "SITEID": "701",
      "USUBJID": "01-701-1146",
      "TRTA": "Xanomeline High Dose",
      "TRTAN": 81.0,
      "AGE": 75.0,
      "AGEGR1": "65-80",
      "AGEGR1N": 2.0,
      "RACE": "WHITE",
      "RACEN": 1.0,
      "SEX": "F",
      "SAFFL": "Y",
      "TRTSDT": 19498.0,
      "TRTEDT": 19535.0,
      "ASTDT": 19519.0,
      "ASTDTF": "",
      "ASTDY": 22.0,
      "AENDT": NaN,
      "AENDY": NaN,
      "ADURN": NaN,
      "ADURU": "",
      "AETERM": "APPLICATION SITE PRURITUS",
      "AELLT": "APPLICATION SITE ITCHING",
      "AELLTCD": null,
      "AEDECOD": "APPLICATION SITE PRURITUS",
      "AEPTCD": null,
      "AEHLT": "HLT_0317",
      "AEHLTCD": null,
      "AEHLGT": "HLGT_0338",
      "AEHLGTCD": null,
      "AEBODSYS": "GENERAL DISORDERS AND ADMINISTRATION SITE CONDITIONS",
      "AESOC": "GENERAL DISORDERS AND ADMINISTRATION SITE CONDITIONS",
      "AESOCCD": null,
      "AESEV": "MILD",
      "AESER": "N",
      "AESCAN": "N",
      "AESCONG": "N",
      "AESDISAB": "N",
      "AESDTH": "N",
      "AESHOSP": "N",
      "AESLIFE": "N",
      "AESOD": "N",
      "AEREL": "PROBABLE",
      "AEACN": "",
      "AEOUT": "NOT RECOVERED/NOT RESOLVED",
      "AESEQ": 6.0,
      "TRTEMFL": "Y",
      "AOCCFL": "",
      "AOCCSFL": "",
      "AOCCPFL": "Y",
      "AOCC02FL": "",
      "AOCC03FL": "",
      "AOCC04FL": "",
      "CQ01NAM": "DERMATOLOGIC EVENTS",
      "AOCC01FL": ""
    },
    {
      "STUDYID": "CDISCPILOT01",
      "SITEID": "701",
      "USUBJID": "01-701-1146",
      "TRTA": "Xanomeline High Dose",
      "TRTAN": 81.0,
      "AGE": 75.0,
      "AGEGR1": "65-80",
      "AGEGR1N": 2.0,
      "RACE": "WHITE",
      "RACEN": 1.0,
      "SEX": "F",
      "SAFFL": "Y",
      "TRTSDT": 19498.0,
      "TRTEDT": 19535.0,
      "ASTDT": 19519.0,
      "ASTDTF": "",
      "ASTDY": 22.0,
      "AENDT": NaN,
      "AENDY": NaN,
      "ADURN": NaN,
      "ADURU": "",
      "AETERM": "APPLICATION SITE ERYTHEMA",
      "AELLT": "APPLICATION SITE ERYTHEMA",
      "AELLTCD": null,
      "AEDECOD": "APPLICATION SITE ERYTHEMA",
      "AEPTCD": null,
      "AEHLT": "HLT_0617",
      "AEHLTCD": null,
      "AEHLGT": "HLGT_0152",
      "AEHLGTCD": null,
      "AEBODSYS": "GENERAL DISORDERS AND ADMINISTRATION SITE CONDITIONS",
      "AESOC": "GENERAL DISORDERS AND ADMINISTRATION SITE CONDITIONS",
      "AESOCCD": null,
      "AESEV": "MODERATE",
      "AESER": "N",
      "AESCAN": "N",
      "AESCONG": "N",
      "AESDISAB": "N",
      "AESDTH": "N",
      "AESHOSP": "N",
      "AESLIFE": "N",
      "AESOD": "N",
      "AEREL": "PROBABLE",
      "AEACN": "",
      "AEOUT": "NOT RECOVERED/NOT RESOLVED",
      "AESEQ": 7.0,
      "TRTEMFL": "Y",
      "AOCCFL": "",
      "AOCCSFL": "",
      "AOCCPFL": "",
      "AOCC02FL": "",
      "AOCC03FL": "",
      "AOCC04FL": "",
      "CQ01NAM": "DERMATOLOGIC EVENTS",
      "AOCC01FL": ""
    },
    {
      "STUDYID": "CDISCPILOT01",
      "SITEID": "701",
      "USUBJID": "01-701-1146",
      "TRTA": "Xanomeline High Dose",
      "TRTAN": 81.0,
      "AGE": 75.0,
      "AGEGR1": "65-80",
      "AGEGR1N": 2.0,
      "RACE": "WHITE",
      "RACEN": 1.0,
      "SEX": "F",
      "SAFFL": "Y",
      "TRTSDT": 19498.0,
      "TRTEDT": 19535.0,
      "ASTDT": 19519.0,
      "ASTDTF": "",
      "ASTDY": 22.0,
      "AENDT": NaN,
      "AENDY": NaN,
      "ADURN": NaN,
      "ADURU": "",
      "AETERM": "APPLICATION SITE PRURITUS",
      "AELLT": "APPLICATION SITE ITCHING",
      "AELLTCD": null,
      "AEDECOD": "APPLICATION SITE PRURITUS",
      "AEPTCD": null,
      "AEHLT": "HLT_0317",
      "AEHLTCD": null,
      "AEHLGT": "HLGT_0338",
      "AEHLGTCD": null,
      "AEBODSYS": "GENERAL DISORDERS AND ADMINISTRATION SITE CONDITIONS",
      "AESOC": "GENERAL DISORDERS AND ADMINISTRATION SITE CONDITIONS",
      "AESOCCD": null,
      "AESEV": "MODERATE",
      "AESER": "N",
      "AESCAN": "N",
      "AESCONG": "N",
      "AESDISAB": "N",
      "AESDTH": "N",
      "AESHOSP": "N",
      "AESLIFE": "N",
      "AESOD": "N",
      "AEREL": "PROBABLE",
      "AEACN": "",
      "AEOUT": "NOT RECOVERED/NOT RESOLVED",
      "AESEQ": 8.0,
      "TRTEMFL": "Y",
      "AOCCFL": "",
      "AOCCSFL": "",
      "AOCCPFL": "",
      "AOCC02FL": "",
      "AOCC03FL": "",
      "AOCC04FL": "",
      "CQ01NAM": "DERMATOLOGIC EVENTS",
      "AOCC01FL": ""
    },
    {
      "STUDYID": "CDISCPILOT01",
      "SITEID": "701",
      "USUBJID": "01-701-1146",
      "TRTA": "Xanomeline High Dose",
      "TRTAN": 81.0,
      "AGE": 75.0,
      "AGEGR1": "65-80",
      "AGEGR1N": 2.0,
      "RACE": "WHITE",
      "RACEN": 1.0,
      "SEX": "F",
      "SAFFL": "Y",
      "TRTSDT": 19498.0,
      "TRTEDT": 19535.0,
      "ASTDT": 19531.0,
      "ASTDTF": "",
      "ASTDY": 34.0,
      "AENDT": NaN,
      "AENDY": NaN,
      "ADURN": NaN,
      "ADURU": "",
      "AETERM": "APPLICATION SITE PAIN",
      "AELLT": "APPLICATION SITE PAIN",
      "AELLTCD": null,
      "AEDECOD": "APPLICATION SITE PAIN",
      "AEPTCD": null,
      "AEHLT": "HLT_0342",
      "AEHLTCD": null,
      "AEHLGT": "HLGT_0085",
      "AEHLGTCD": null,
      "AEBODSYS": "GENERAL DISORDERS AND ADMINISTRATION SITE CONDITIONS",
      "AESOC": "GENERAL DISORDERS AND ADMINISTRATION SITE CONDITIONS",
      "AESOCCD": null,
      "AESEV": "MODERATE",
      "AESER": "N",
      "AESCAN": "N",
      "AESCONG": "N",
      "AESDISAB": "N",
      "AESDTH": "N",
      "AESHOSP": "N",
      "AESLIFE": "N",
      "AESOD": "N",
      "AEREL": "PROBABLE",
      "AEACN": "",
      "AEOUT": "NOT RECOVERED/NOT RESOLVED",
      "AESEQ": 9.0,
      "TRTEMFL": "Y",
      "AOCCFL": "",
      "AOCCSFL": "",
      "AOCCPFL": "Y",
      "AOCC02FL": "",
      "AOCC03FL": "",
      "AOCC04FL": "",
      "CQ01NAM": "DERMATOLOGIC EVENTS",
      "AOCC01FL": ""
    },
    {
      "STUDYID": "CDISCPILOT01",
      "SITEID": "701",
      "USUBJID": "01-701-1146",
      "TRTA": "Xanomeline High Dose",
      "TRTAN": 81.0,
      "AGE": 75.0,
      "AGEGR1": "65-80",
      "AGEGR1N": 2.0,
      "RACE": "WHITE",
      "RACEN": 1.0,
      "SEX": "F",
      "SAFFL": "Y",
      "TRTSDT": 19498.0,
      "TRTEDT": 19535.0,
      "ASTDT": 19535.0,
      "ASTDTF": "",
      "ASTDY": 38.0,
      "AENDT": NaN,
      "AENDY": NaN,
      "ADURN": NaN,
      "ADURU": "",
      "AETERM": "APPLICATION SITE VESICLES",
      "AELLT": "APPLICATION SITE VESICLES",
      "AELLTCD": null,
      "AEDECOD": "APPLICATION SITE VESICLES",
      "AEPTCD": null,
      "AEHLT": "HLT_0180",
      "AEHLTCD": null,
      "AEHLGT": "HLGT_0576",
      "AEHLGTCD": null,
      "AEBODSYS": "GENERAL DISORDERS AND ADMINISTRATION SITE CONDITIONS",
      "AESOC": "GENERAL DISORDERS AND ADMINISTRATION SITE CONDITIONS",
      "AESOCCD": null,
      "AESEV": "MODERATE",
      "AESER": "N",
      "AESCAN": "N",
      "AESCONG": "N",
      "AESDISAB": "N",
      "AESDTH": "N",
      "AESHOSP": "N",
      "AESLIFE": "N",
      "AESOD": "N",
      "AEREL": "PROBABLE",
      "AEACN": "",
      "AEOUT": "NOT RECOVERED/NOT RESOLVED",
      "AESEQ": 10.0,
      "TRTEMFL": "Y",
      "AOCCFL": "",
      "AOCCSFL": "",
      "AOCCPFL": "Y",
      "AOCC02FL": "",
      "AOCC03FL": "",
      "AOCC04FL": "",
      "CQ01NAM": "DERMATOLOGIC EVENTS",
      "AOCC01FL": ""
    },
    {
      "STUDYID": "CDISCPILOT01",
      "SITEID": "701",
      "USUBJID": "01-701-1146",
      "TRTA": "Xanomeline High Dose",
      "TRTAN": 81.0,
      "AGE": 75.0,
      "AGEGR1": "65-80",
      "AGEGR1N": 2.0,
      "RACE": "WHITE",
      "RACEN": 1.0,
      "SEX": "F",
      "SAFFL": "Y",
      "TRTSDT": 19498.0,
      "TRTEDT": 19535.0,
      "ASTDT": 19535.0,
      "ASTDTF": "",
      "ASTDY": 38.0,
      "AENDT": NaN,
      "AENDY": NaN,
      "ADURN": NaN,
      "ADURU": "",
      "AETERM": "APPLICATION SITE IRRITATION",
      "AELLT": "APPLICATION SITE BURNING",
      "AELLTCD": null,
      "AEDECOD": "APPLICATION SITE IRRITATION",
      "AEPTCD": null,
      "AEHLT": "HLT_0061",
      "AEHLTCD": null,
      "AEHLGT": "HLGT_0346",
      "AEHLGTCD": null,
      "AEBODSYS": "GENERAL DISORDERS AND ADMINISTRATION SITE CONDITIONS",
      "AESOC": "GENERAL DISORDERS AND ADMINISTRATION SITE CONDITIONS",
      "AESOCCD": null,
      "AESEV": "MODERATE",
      "AESER": "N",
      "AESCAN": "N",
      "AESCONG": "N",
      "AESDISAB": "N",
      "AESDTH": "N",
      "AESHOSP": "N",
      "AESLIFE": "N",
      "AESOD": "N",
      "AEREL": "PROBABLE",
      "AEACN": "",
      "AEOUT": "NOT RECOVERED/NOT RESOLVED",
      "AESEQ": 11.0,
      "TRTEMFL": "Y",
      "AOCCFL": "",
      "AOCCSFL": "",
      "AOCCPFL": "",
      "AOCC02FL": "",
      "AOCC03FL": "",
      "AOCC04FL": "",
      "CQ01NAM": "DERMATOLOGIC EVENTS",
      "AOCC01FL": ""
    },
    {
      "STUDYID": "CDISCPILOT01",
      "SITEID": "701",
      "USUBJID": "01-701-1148",
      "TRTA": "Xanomeline High Dose",
      "TRTAN": 81.0,
      "AGE": 57.0,
      "AGEGR1": "<65",
      "AGEGR1N": 1.0,
      "RACE": "WHITE",
      "RACEN": 1.0,
      "SEX": "M",
      "SAFFL": "Y",
      "TRTSDT": 19593.0,
      "TRTEDT": 19774.0,
      "ASTDT": 19595.0,
      "ASTDTF": "",
      "ASTDY": 3.0,
      "AENDT": NaN,
      "AENDY": NaN,
      "ADURN": NaN,
      "ADURU": "",
      "AETERM": "APPLICATION SITE ERYTHEMA",
      "AELLT": "APPLICATION SITE REDNESS",
      "AELLTCD": null,
      "AEDECOD": "APPLICATION SITE ERYTHEMA",
      "AEPTCD": null,
      "AEHLT": "HLT_0617",
      "AEHLTCD": null,
      "AEHLGT": "HLGT_0152",
      "AEHLGTCD": null,
      "AEBODSYS": "GENERAL DISORDERS AND ADMINISTRATION SITE CONDITIONS",
      "AESOC": "GENERAL DISORDERS AND ADMINISTRATION SITE CONDITIONS",
      "AESOCCD": null,
      "AESEV": "MILD",
      "AESER": "N",
      "AESCAN": "N",
      "AESCONG": "N",
      "AESDISAB": "N",
      "AESDTH": "N",
      "AESHOSP": "N",
      "AESLIFE": "N",
      "AESOD": "N",
      "AEREL": "PROBABLE",
      "AEACN": "",
      "AEOUT": "NOT RECOVERED/NOT RESOLVED",
      "AESEQ": 1.0,
      "TRTEMFL": "Y",
      "AOCCFL": "Y",
      "AOCCSFL": "Y",
      "AOCCPFL": "Y",
      "AOCC02FL": "",
      "AOCC03FL": "",
      "AOCC04FL": "",
      "CQ01NAM": "DERMATOLOGIC EVENTS",
      "AOCC01FL": "Y"
    },
    {
      "STUDYID": "CDISCPILOT01",
      "SITEID": "701",
      "USUBJID": "01-701-1148",
      "TRTA": "Xanomeline High Dose",
      "TRTAN": 81.0,
      "AGE": 57.0,
      "AGEGR1": "<65",
      "AGEGR1N": 1.0,
      "RACE": "WHITE",
      "RACEN": 1.0,
      "SEX": "M",
      "SAFFL": "Y",
      "TRTSDT": 19593.0,
      "TRTEDT": 19774.0,
      "ASTDT": 19595.0,
      "ASTDTF": "",
      "ASTDY": 3.0,
      "AENDT": NaN,
      "AENDY": NaN,
      "ADURN": NaN,
      "ADURU": "",
      "AETERM": "APPLICATION SITE PRURITUS",
      "AELLT": "APPLICATION SITE ITCHING",
      "AELLTCD": null,
      "AEDECOD": "APPLICATION SITE PRURITUS",
      "AEPTCD": null,
      "AEHLT": "HLT_0317",
      "AEHLTCD": null,
      "AEHLGT": "HLGT_0338",
      "AEHLGTCD": null,
      "AEBODSYS": "GENERAL DISORDERS AND ADMINISTRATION SITE CONDITIONS",
      "AESOC": "GENERAL DISORDERS AND ADMINISTRATION SITE CONDITIONS",
      "AESOCCD": null,
      "AESEV": "MILD",
      "AESER": "N",
      "AESCAN": "N",
      "AESCONG": "N",
      "AESDISAB": "N",
      "AESDTH": "N",
      "AESHOSP": "N",
      "AESLIFE": "N",
      "AESOD": "N",
      "AEREL": "PROBABLE",
      "AEACN": "",
      "AEOUT": "NOT RECOVERED/NOT RESOLVED",
      "AESEQ": 2.0,
      "TRTEMFL": "Y",
      "AOCCFL": "",
      "AOCCSFL": "",
      "AOCCPFL": "Y",
      "AOCC02FL": "",
      "AOCC03FL": "",
      "AOCC04FL": "",
      "CQ01NAM": "DERMATOLOGIC EVENTS",
      "AOCC01FL": ""
    },
    {
      "STUDYID": "CDISCPILOT01",
      "SITEID": "701",
      "USUBJID": "01-701-1148",
      "TRTA": "Xanomeline High Dose",
      "TRTAN": 81.0,
      "AGE": 57.0,
      "AGEGR1": "<65",
      "AGEGR1N": 1.0,
      "RACE": "WHITE",
      "RACEN": 1.0,
      "SEX": "M",
      "SAFFL": "Y",
      "TRTSDT": 19593.0,
      "TRTEDT": 19774.0,
      "ASTDT": 19643.0,
      "ASTDTF": "",
      "ASTDY": 51.0,
      "AENDT": 19672.0,
      "AENDY": 80.0,
      "ADURN": 30.0,
      "ADURU": "DAY",
      "AETERM": "LOWER RESPIRATORY TRACT INFECTION",
      "AELLT": "CHEST COLD",
      "AELLTCD": null,
      "AEDECOD": "LOWER RESPIRATORY TRACT INFECTION",
      "AEPTCD": null,
      "AEHLT": "HLT_0052",
      "AEHLTCD": null,
      "AEHLGT": "HLGT_0217",
      "AEHLGTCD": null,
      "AEBODSYS": "INFECTIONS AND INFESTATIONS",
      "AESOC": "INFECTIONS AND INFESTATIONS",
      "AESOCCD": null,
      "AESEV": "MODERATE",
      "AESER": "N",
      "AESCAN": "N",
      "AESCONG": "N",
      "AESDISAB": "N",
      "AESDTH": "N",
      "AESHOSP": "N",
      "AESLIFE": "N",
      "AESOD": "N",
      "AEREL": "NONE",
      "AEACN": "",
      "AEOUT": "NOT RECOVERED/NOT RESOLVED",
      "AESEQ": 3.0,
      "TRTEMFL": "Y",
      "AOCCFL": "",
      "AOCCSFL": "Y",
      "AOCCPFL": "Y",
      "AOCC02FL": "",
      "AOCC03FL": "",
      "AOCC04FL": "",
      "CQ01NAM": "",
      "AOCC01FL": ""
    },
    {
      "STUDYID": "CDISCPILOT01",
      "SITEID": "701",
      "USUBJID": "01-701-1148",
      "TRTA": "Xanomeline High Dose",
      "TRTAN": 81.0,
      "AGE": 57.0,
      "AGEGR1": "<65",
      "AGEGR1N": 1.0,
      "RACE": "WHITE",
      "RACEN": 1.0,
      "SEX": "M",
      "SAFFL": "Y",
      "TRTSDT": 19593.0,
      "TRTEDT": 19774.0,
      "ASTDT": 19643.0,
      "ASTDTF": "",
      "ASTDY": 51.0,
      "AENDT": 19672.0,
      "AENDY": 80.0,
      "ADURN": 30.0,
      "ADURU": "DAY",
      "AETERM": "LOWER RESPIRATORY TRACT INFECTION",
      "AELLT": "CHEST COLD",
      "AELLTCD": null,
      "AEDECOD": "LOWER RESPIRATORY TRACT INFECTION",
      "AEPTCD": null,
      "AEHLT": "HLT_0052",
      "AEHLTCD": null,
      "AEHLGT": "HLGT_0217",
      "AEHLGTCD": null,
      "AEBODSYS": "INFECTIONS AND INFESTATIONS",
      "AESOC": "INFECTIONS AND INFESTATIONS",
      "AESOCCD": null,
      "AESEV": "MODERATE",
      "AESER": "N",
      "AESCAN": "N",
      "AESCONG": "N",
      "AESDISAB": "N",
      "AESDTH": "N",
      "AESHOSP": "N",
      "AESLIFE": "N",
      "AESOD": "N",
      "AEREL": "NONE",
      "AEACN": "",
      "AEOUT": "RECOVERED/RESOLVED",
      "AESEQ": 4.0,
      "TRTEMFL": "Y",
      "AOCCFL": "",
      "AOCCSFL": "",
      "AOCCPFL": "",
      "AOCC02FL": "",
      "AOCC03FL": "",
      "AOCC04FL": "",
      "CQ01NAM": "",
      "AOCC01FL": ""
    },
    {
      "STUDYID": "CDISCPILOT01",
      "SITEID": "701",
      "USUBJID": "01-701-1148",
      "TRTA": "Xanomeline High Dose",
      "TRTAN": 81.0,
      "AGE": 57.0,
      "AGEGR1": "<65",
      "AGEGR1N": 1.0,
      "RACE": "WHITE",
      "RACEN": 1.0,
      "SEX": "M",
      "SAFFL": "Y",
      "TRTSDT": 19593.0,
      "TRTEDT": 19774.0,
      "ASTDT": 19707.0,
      "ASTDTF": "",
      "ASTDY": 115.0,
      "AENDT": 19709.0,
      "AENDY": 117.0,
      "ADURN": 3.0,
      "ADURU": "DAY",
      "AETERM": "FLANK PAIN",
      "AELLT": "FLANK PAIN",
      "AELLTCD": null,
      "AEDECOD": "FLANK PAIN",
      "AEPTCD": null,
      "AEHLT": "HLT_0484",
      "AEHLTCD": null,
      "AEHLGT": "HLGT_0543",
      "AEHLGTCD": null,
      "AEBODSYS": "MUSCULOSKELETAL AND CONNECTIVE TISSUE DISORDERS",
      "AESOC": "MUSCULOSKELETAL AND CONNECTIVE TISSUE DISORDERS",
      "AESOCCD": null,
      "AESEV": "MODERATE",
      "AESER": "N",
      "AESCAN": "N",
      "AESCONG": "N",
      "AESDISAB": "N",
      "AESDTH": "N",
      "AESHOSP": "N",
      "AESLIFE": "N",
      "AESOD": "N",
      "AEREL": "NONE",
      "AEACN": "",
      "AEOUT": "RECOVERED/RESOLVED",
      "AESEQ": 5.0,
      "TRTEMFL": "Y",
      "AOCCFL": "",
      "AOCCSFL": "Y",
      "AOCCPFL": "Y",
      "AOCC02FL": "",
      "AOCC03FL": "",
      "AOCC04FL": "",
      "CQ01NAM": "",
      "AOCC01FL": ""
    },
    {
      "STUDYID": "CDISCPILOT01",
      "SITEID": "701",
      "USUBJID": "01-701-1148",
      "TRTA": "Xanomeline High Dose",
      "TRTAN": 81.0,
      "AGE": 57.0,
      "AGEGR1": "<65",
      "AGEGR1N": 1.0,
      "RACE": "WHITE",
      "RACEN": 1.0,
      "SEX": "M",
      "SAFFL": "Y",
      "TRTSDT": 19593.0,
      "TRTEDT": 19774.0,
      "ASTDT": 19709.0,
      "ASTDTF": "",
      "ASTDY": 117.0,
      "AENDT": 19709.0,
      "AENDY": 117.0,
      "ADURN": 1.0,
      "ADURU": "DAY",
      "AETERM": "CALCULUS URETHRAL",
      "AELLT": "URETHRAL CALCULUS",
      "AELLTCD": null,
      "AEDECOD": "CALCULUS URETHRAL",
      "AEPTCD": null,
      "AEHLT": "HLT_0550",
      "AEHLTCD": null,
      "AEHLGT": "HLGT_0414",
      "AEHLGTCD": null,
      "AEBODSYS": "RENAL AND URINARY DISORDERS",
      "AESOC": "RENAL AND URINARY DISORDERS",
      "AESOCCD": null,
      "AESEV": "MODERATE",
      "AESER": "N",
      "AESCAN": "N",
      "AESCONG": "N",
      "AESDISAB": "N",
      "AESDTH": "N",
      "AESHOSP": "N",
      "AESLIFE": "N",
      "AESOD": "N",
      "AEREL": "NONE",
      "AEACN": "",
      "AEOUT": "RECOVERED/RESOLVED",
      "AESEQ": 6.0,
      "TRTEMFL": "Y",
      "AOCCFL": "",
      "AOCCSFL": "Y",
      "AOCCPFL": "Y",
      "AOCC02FL": "",
      "AOCC03FL": "",
      "AOCC04FL": "",
      "CQ01NAM": "",
      "AOCC01FL": ""
    },
    {
      "STUDYID": "CDISCPILOT01",
      "SITEID": "701",
      "USUBJID": "01-701-1148",
      "TRTA": "Xanomeline High Dose",
      "TRTAN": 81.0,
      "AGE": 57.0,
      "AGEGR1": "<65",
      "AGEGR1N": 1.0,
      "RACE": "WHITE",
      "RACEN": 1.0,
      "SEX": "M",
      "SAFFL": "Y",
      "TRTSDT": 19593.0,
      "TRTEDT": 19774.0,
      "ASTDT": 19726.0,
      "ASTDTF": "",
      "ASTDY": 134.0,
      "AENDT": 19726.0,
      "AENDY": 134.0,
      "ADURN": 1.0,
      "ADURU": "DAY",
      "AETERM": "EPISTAXIS",
      "AELLT": "NOSE BLEED",
      "AELLTCD": null,
      "AEDECOD": "EPISTAXIS",
      "AEPTCD": null,
      "AEHLT": "HLT_0386",
      "AEHLTCD": null,
      "AEHLGT": "HLGT_0577",
      "AEHLGTCD": null,
      "AEBODSYS": "RESPIRATORY, THORACIC AND MEDIASTINAL DISORDERS",
      "AESOC": "RESPIRATORY, THORACIC AND MEDIASTINAL DISORDERS",
      "AESOCCD": null,
      "AESEV": "MILD",
      "AESER": "N",
      "AESCAN": "N",
      "AESCONG": "N",
      "AESDISAB": "N",
      "AESDTH": "N",
      "AESHOSP": "N",
      "AESLIFE": "N",
      "AESOD": "N",
      "AEREL": "NONE",
      "AEACN": "",
      "AEOUT": "RECOVERED/RESOLVED",
      "AESEQ": 7.0,
      "TRTEMFL": "Y",
      "AOCCFL": "",
      "AOCCSFL": "Y",
      "AOCCPFL": "Y",
      "AOCC02FL": "",
      "AOCC03FL": "",
      "AOCC04FL": "",
      "CQ01NAM": "",
      "AOCC01FL": ""
    },
    {
      "STUDYID": "CDISCPILOT01",
      "SITEID": "701",
      "USUBJID": "01-701-1148",
      "TRTA": "Xanomeline High Dose",
      "TRTAN": 81.0,
      "AGE": 57.0,
      "AGEGR1": "<65",
      "AGEGR1N": 1.0,
      "RACE": "WHITE",
      "RACEN": 1.0,
      "SEX": "M",
      "SAFFL": "Y",
      "TRTSDT": 19593.0,
      "TRTEDT": 19774.0,
      "ASTDT": 19024.0,
      "ASTDTF": "D",
      "ASTDY": -569.0,
      "AENDT": NaN,
      "AENDY": NaN,
      "ADURN": NaN,
      "ADURU": "",
      "AETERM": "DYSPEPSIA",
      "AELLT": "INDIGESTION",
      "AELLTCD": null,
      "AEDECOD": "DYSPEPSIA",
      "AEPTCD": null,
      "AEHLT": "HLT_0244",
      "AEHLTCD": null,
      "AEHLGT": "HLGT_0716",
      "AEHLGTCD": null,
      "AEBODSYS": "GASTROINTESTINAL DISORDERS",
      "AESOC": "GASTROINTESTINAL DISORDERS",
      "AESOCCD": null,
      "AESEV": "MODERATE",
      "AESER": "N",
      "AESCAN": "N",
      "AESCONG": "N",
      "AESDISAB": "N",
      "AESDTH": "N",
      "AESHOSP": "N",
      "AESLIFE": "N",
      "AESOD": "N",
      "AEREL": "NONE",
      "AEACN": "",
      "AEOUT": "NOT RECOVERED/NOT RESOLVED",
      "AESEQ": 8.0,
      "TRTEMFL": "",
      "AOCCFL": "",
      "AOCCSFL": "",
      "AOCCPFL": "",
      "AOCC02FL": "",
      "AOCC03FL": "",
      "AOCC04FL": "",
      "CQ01NAM": "",
      "AOCC01FL": ""
    },
    {
      "STUDYID": "CDISCPILOT01",
      "SITEID": "701",
      "USUBJID": "01-701-1148",
      "TRTA": "Xanomeline High Dose",
      "TRTAN": 81.0,
      "AGE": 57.0,
      "AGEGR1": "<65",
      "AGEGR1N": 1.0,
      "RACE": "WHITE",
      "RACEN": 1.0,
      "SEX": "M",
      "SAFFL": "Y",
      "TRTSDT": 19593.0,
      "TRTEDT": 19774.0,
      "ASTDT": 19568.0,
      "ASTDTF": "",
      "ASTDY": -25.0,
      "AENDT": NaN,
      "AENDY": NaN,
      "ADURN": NaN,
      "ADURU": "",
      "AETERM": "DEPRESSED MOOD",
      "AELLT": "DEPRESSED MOOD",
      "AELLTCD": null,
      "AEDECOD": "DEPRESSED MOOD",
      "AEPTCD": null,
      "AEHLT": "HLT_0784",
      "AEHLTCD": null,
      "AEHLGT": "HLGT_0122",
      "AEHLGTCD": null,
      "AEBODSYS": "PSYCHIATRIC DISORDERS",
      "AESOC": "PSYCHIATRIC DISORDERS",
      "AESOCCD": null,
      "AESEV": "MODERATE",
      "AESER": "N",
      "AESCAN": "N",
      "AESCONG": "N",
      "AESDISAB": "N",
      "AESDTH": "N",
      "AESHOSP": "N",
      "AESLIFE": "N",
      "AESOD": "N",
      "AEREL": "NONE",
      "AEACN": "",
      "AEOUT": "NOT RECOVERED/NOT RESOLVED",
      "AESEQ": 9.0,
      "TRTEMFL": "",
      "AOCCFL": "",
      "AOCCSFL": "",
      "AOCCPFL": "",
      "AOCC02FL": "",
      "AOCC03FL": "",
      "AOCC04FL": "",
      "CQ01NAM": "",
      "AOCC01FL": ""
    },
    {
      "STUDYID": "CDISCPILOT01",
      "SITEID": "701",
      "USUBJID": "01-701-1148",
      "TRTA": "Xanomeline High Dose",
      "TRTAN": 81.0,
      "AGE": 57.0,
      "AGEGR1": "<65",
      "AGEGR1N": 1.0,
      "RACE": "WHITE",
      "RACEN": 1.0,
      "SEX": "M",
      "SAFFL": "Y",
      "TRTSDT": 19593.0,
      "TRTEDT": 19774.0,
      "ASTDT": 19766.0,
      "ASTDTF": "",
      "ASTDY": 174.0,
      "AENDT": NaN,
      "AENDY": NaN,
      "ADURN": NaN,
      "ADURU": "",
      "AETERM": "ACTINIC KERATOSIS",
      "AELLT": "ACTINIC KERATOSIS",
      "AELLTCD": null,
      "AEDECOD": "ACTINIC KERATOSIS",
      "AEPTCD": null,
      "AEHLT": "HLT_0609",
      "AEHLTCD": null,
      "AEHLGT": "HLGT_0490",
      "AEHLGTCD": null,
      "AEBODSYS": "SKIN AND SUBCUTANEOUS TISSUE DISORDERS",
      "AESOC": "SKIN AND SUBCUTANEOUS TISSUE DISORDERS",
      "AESOCCD": null,
      "AESEV": "MILD",
      "AESER": "N",
      "AESCAN": "N",
      "AESCONG": "N",
      "AESDISAB": "N",
      "AESDTH": "N",
      "AESHOSP": "N",
      "AESLIFE": "N",
      "AESOD": "N",
      "AEREL": "NONE",
      "AEACN": "",
      "AEOUT": "NOT RECOVERED/NOT RESOLVED",
      "AESEQ": 10.0,
      "TRTEMFL": "Y",
      "AOCCFL": "",
      "AOCCSFL": "Y",
      "AOCCPFL": "Y",
      "AOCC02FL": "",
      "AOCC03FL": "",
      "AOCC04FL": "",
      "CQ01NAM": "DERMATOLOGIC EVENTS",
      "AOCC01FL": ""
    },
    {
      "STUDYID": "CDISCPILOT01",
      "SITEID": "701",
      "USUBJID": "01-701-1153",
      "TRTA": "Placebo",
      "TRTAN": 5.397605346934028e-79,
      "AGE": 79.0,
      "AGEGR1": "65-80",
      "AGEGR1N": 2.0,
      "RACE": "WHITE",
      "RACEN": 1.0,
      "SEX": "F",
      "SAFFL": "Y",
      "TRTSDT": 19624.0,
      "TRTEDT": 19798.0,
      "ASTDT": 19644.0,
      "ASTDTF": "",
      "ASTDY": 21.0,
      "AENDT": 19668.0,
      "AENDY": 45.0,
      "ADURN": 25.0,
      "ADURU": "DAY",
      "AETERM": "INCREASED APPETITE",
      "AELLT": "INCREASED APPETITE",
      "AELLTCD": null,
      "AEDECOD": "INCREASED APPETITE",
      "AEPTCD": null,
      "AEHLT": "HLT_0566",
      "AEHLTCD": null,
      "AEHLGT": "HLGT_0769",
      "AEHLGTCD": null,
      "AEBODSYS": "METABOLISM AND NUTRITION DISORDERS",
      "AESOC": "METABOLISM AND NUTRITION DISORDERS",
      "AESOCCD": null,
      "AESEV": "MILD",
      "AESER": "N",
      "AESCAN": "N",
      "AESCONG": "N",
      "AESDISAB": "N",
      "AESDTH": "N",
      "AESHOSP": "N",
      "AESLIFE": "N",
      "AESOD": "N",
      "AEREL": "POSSIBLE",
      "AEACN": "",
      "AEOUT": "NOT RECOVERED/NOT RESOLVED",
      "AESEQ": 1.0,
      "TRTEMFL": "Y",
      "AOCCFL": "Y",
      "AOCCSFL": "Y",
      "AOCCPFL": "Y",
      "AOCC02FL": "",
      "AOCC03FL": "",
      "AOCC04FL": "",
      "CQ01NAM": "",
      "AOCC01FL": ""
    },
    {
      "STUDYID": "CDISCPILOT01",
      "SITEID": "701",
      "USUBJID": "01-701-1153",
      "TRTA": "Placebo",
      "TRTAN": 5.397605346934028e-79,
      "AGE": 79.0,
      "AGEGR1": "65-80",
      "AGEGR1N": 2.0,
      "RACE": "WHITE",
      "RACEN": 1.0,
      "SEX": "F",
      "SAFFL": "Y",
      "TRTSDT": 19624.0,
      "TRTEDT": 19798.0,
      "ASTDT": 19644.0,
      "ASTDTF": "",
      "ASTDY": 21.0,
      "AENDT": 19668.0,
      "AENDY": 45.0,
      "ADURN": 25.0,
      "ADURU": "DAY",
      "AETERM": "INCREASED APPETITE",
      "AELLT": "INCREASED APPETITE",
      "AELLTCD": null,
      "AEDECOD": "INCREASED APPETITE",
      "AEPTCD": null,
      "AEHLT": "HLT_0566",
      "AEHLTCD": null,
      "AEHLGT": "HLGT_0769",
      "AEHLGTCD": null,
      "AEBODSYS": "METABOLISM AND NUTRITION DISORDERS",
      "AESOC": "METABOLISM AND NUTRITION DISORDERS",
      "AESOCCD": null,
      "AESEV": "MILD",
      "AESER": "N",
      "AESCAN": "N",
      "AESCONG": "N",
      "AESDISAB": "N",
      "AESDTH": "N",
      "AESHOSP": "N",
      "AESLIFE": "N",
      "AESOD": "N",
      "AEREL": "POSSIBLE",
      "AEACN": "",
      "AEOUT": "RECOVERED/RESOLVED",
      "AESEQ": 2.0,
      "TRTEMFL": "Y",
      "AOCCFL": "",
      "AOCCSFL": "",
      "AOCCPFL": "",
      "AOCC02FL": "",
      "AOCC03FL": "",
      "AOCC04FL": "",
      "CQ01NAM": "",
      "AOCC01FL": ""
    },
    {
      "STUDYID": "CDISCPILOT01",
      "SITEID": "701",
      "USUBJID": "01-701-1180",
      "TRTA": "Xanomeline High Dose",
      "TRTAN": 81.0,
      "AGE": 56.0,
      "AGEGR1": "<65",
      "AGEGR1N": 1.0,
      "RACE": "WHITE",
      "RACEN": 1.0,
      "SEX": "M",
      "SAFFL": "Y",
      "TRTSDT": 19401.0,
      "TRTEDT": 19435.0,
      "ASTDT": 19401.0,
      "ASTDTF": "",
      "ASTDY": 1.0,
      "AENDT": 19401.0,
      "AENDY": 1.0,
      "ADURN": 1.0,
      "ADURU": "DAY",
      "AETERM": "VOMITING",
      "AELLT": "VOMITING",
      "AELLTCD": null,
      "AEDECOD": "VOMITING",
      "AEPTCD": null,
      "AEHLT": "HLT_0016",
      "AEHLTCD": null,
      "AEHLGT": "HLGT_0350",
      "AEHLGTCD": null,
      "AEBODSYS": "GASTROINTESTINAL DISORDERS",
      "AESOC": "GASTROINTESTINAL DISORDERS",
      "AESOCCD": null,
      "AESEV": "MILD",
      "AESER": "N",
      "AESCAN": "N",
      "AESCONG": "N",
      "AESDISAB": "N",
      "AESDTH": "N",
      "AESHOSP": "N",
      "AESLIFE": "N",
      "AESOD": "N",
      "AEREL": "NONE",
      "AEACN": "",
      "AEOUT": "NOT RECOVERED/NOT RESOLVED",
      "AESEQ": 1.0,
      "TRTEMFL": "Y",
      "AOCCFL": "Y",
      "AOCCSFL": "Y",
      "AOCCPFL": "Y",
      "AOCC02FL": "",
      "AOCC03FL": "",
      "AOCC04FL": "",
      "CQ01NAM": "",
      "AOCC01FL": ""
    },
    {
      "STUDYID": "CDISCPILOT01",
      "SITEID": "701",
      "USUBJID": "01-701-1180",
      "TRTA": "Xanomeline High Dose",
      "TRTAN": 81.0,
      "AGE": 56.0,
      "AGEGR1": "<65",
      "AGEGR1N": 1.0,
      "RACE": "WHITE",
      "RACEN": 1.0,
      "SEX": "M",
      "SAFFL": "Y",
      "TRTSDT": 19401.0,
      "TRTEDT": 19435.0,
      "ASTDT": 19401.0,
      "ASTDTF": "",
      "ASTDY": 1.0,
      "AENDT": 19401.0,
      "AENDY": 1.0,
      "ADURN": 1.0,
      "ADURU": "DAY",
      "AETERM": "VOMITING",
      "AELLT": "VOMITING",
      "AELLTCD": null,
      "AEDECOD": "VOMITING",
      "AEPTCD": null,
      "AEHLT": "HLT_0016",
      "AEHLTCD": null,
      "AEHLGT": "HLGT_0350",
      "AEHLGTCD": null,
      "AEBODSYS": "GASTROINTESTINAL DISORDERS",
      "AESOC": "GASTROINTESTINAL DISORDERS",
      "AESOCCD": null,
      "AESEV": "MILD",
      "AESER": "N",
      "AESCAN": "N",
      "AESCONG": "N",
      "AESDISAB": "N",
      "AESDTH": "N",
      "AESHOSP": "N",
      "AESLIFE": "N",
      "AESOD": "N",
      "AEREL": "NONE",
      "AEACN": "",
      "AEOUT": "RECOVERED/RESOLVED",
      "AESEQ": 2.0,
      "TRTEMFL": "Y",
      "AOCCFL": "",
      "AOCCSFL": "",
      "AOCCPFL": "",
      "AOCC02FL": "",
      "AOCC03FL": "",
      "AOCC04FL": "",
      "CQ01NAM": "",
      "AOCC01FL": ""
    },
    {
      "STUDYID": "CDISCPILOT01",
      "SITEID": "701",
      "USUBJID": "01-701-1180",
      "TRTA": "Xanomeline High Dose",
      "TRTAN": 81.0,
      "AGE": 56.0,
      "AGEGR1": "<65",
      "AGEGR1N": 1.0,
      "RACE": "WHITE",
      "RACEN": 1.0,
      "SEX": "M",
      "SAFFL": "Y",
      "TRTSDT": 19401.0,
      "TRTEDT": 19435.0,
      "ASTDT": 19404.0,
      "ASTDTF": "",
      "ASTDY": 4.0,
      "AENDT": 19436.0,
      "AENDY": 36.0,
      "ADURN": 33.0,
      "ADURU": "DAY",
      "AETERM": "MICTURITION URGENCY",
      "AELLT": "URINARY URGENCY",
      "AELLTCD": null,
      "AEDECOD": "MICTURITION URGENCY",
      "AEPTCD": null,
      "AEHLT": "HLT_0294",
      "AEHLTCD": null,
      "AEHLGT": "HLGT_0483",
      "AEHLGTCD": null,
      "AEBODSYS": "RENAL AND URINARY DISORDERS",
      "AESOC": "RENAL AND URINARY DISORDERS",
      "AESOCCD": null,
      "AESEV": "MILD",
      "AESER": "N",
      "AESCAN": "N",
      "AESCONG": "N",
      "AESDISAB": "N",
      "AESDTH": "N",
      "AESHOSP": "N",
      "AESLIFE": "N",
      "AESOD": "N",
      "AEREL": "POSSIBLE",
      "AEACN": "",
      "AEOUT": "NOT RECOVERED/NOT RESOLVED",
      "AESEQ": 3.0,
      "TRTEMFL": "Y",
      "AOCCFL": "",
      "AOCCSFL": "Y",
      "AOCCPFL": "Y",
      "AOCC02FL": "",
      "AOCC03FL": "",
      "AOCC04FL": "",
      "CQ01NAM": "",
      "AOCC01FL": ""
    },
    {
      "STUDYID": "CDISCPILOT01",
      "SITEID": "701",
      "USUBJID": "01-701-1180",
      "TRTA": "Xanomeline High Dose",
      "TRTAN": 81.0,
      "AGE": 56.0,
      "AGEGR1": "<65",
      "AGEGR1N": 1.0,
      "RACE": "WHITE",
      "RACEN": 1.0,
      "SEX": "M",
      "SAFFL": "Y",
      "TRTSDT": 19401.0,
      "TRTEDT": 19435.0,
      "ASTDT": NaN,
      "ASTDTF": "",
      "ASTDY": NaN,
      "AENDT": NaN,
      "AENDY": NaN,
      "ADURN": NaN,
      "ADURU": "",
      "AETERM": "HEADACHE",
      "AELLT": "HEADACHE",
      "AELLTCD": null,
      "AEDECOD": "HEADACHE",
      "AEPTCD": null,
      "AEHLT": "HLT_0064",
      "AEHLTCD": null,
      "AEHLGT": "HLGT_0344",
      "AEHLGTCD": null,
      "AEBODSYS": "NERVOUS SYSTEM DISORDERS",
      "AESOC": "NERVOUS SYSTEM DISORDERS",
      "AESOCCD": null,
      "AESEV": "MODERATE",
      "AESER": "N",
      "AESCAN": "N",
      "AESCONG": "N",
      "AESDISAB": "N",
      "AESDTH": "N",
      "AESHOSP": "N",
      "AESLIFE": "N",
      "AESOD": "N",
      "AEREL": "NONE",
      "AEACN": "",
      "AEOUT": "NOT RECOVERED/NOT RESOLVED",
      "AESEQ": 4.0,
      "TRTEMFL": "",
      "AOCCFL": "",
      "AOCCSFL": "",
      "AOCCPFL": "",
      "AOCC02FL": "",
      "AOCC03FL": "",
      "AOCC04FL": "",
      "CQ01NAM": "",
      "AOCC01FL": ""
    },
    {
      "STUDYID": "CDISCPILOT01",
      "SITEID": "701",
      "USUBJID": "01-701-1180",
      "TRTA": "Xanomeline High Dose",
      "TRTAN": 81.0,
      "AGE": 56.0,
      "AGEGR1": "<65",
      "AGEGR1N": 1.0,
      "RACE": "WHITE",
      "RACEN": 1.0,
      "SEX": "M",
      "SAFFL": "Y",
      "TRTSDT": 19401.0,
      "TRTEDT": 19435.0,
      "ASTDT": 19423.0,
      "ASTDTF": "",
      "ASTDY": 23.0,
      "AENDT": 19424.0,
      "AENDY": 24.0,
      "ADURN": 2.0,
      "ADURU": "DAY",
      "AETERM": "NASOPHARYNGITIS",
      "AELLT": "COLD",
      "AELLTCD": null,
      "AEDECOD": "NASOPHARYNGITIS",
      "AEPTCD": null,
      "AEHLT": "HLT_0036",
      "AEHLTCD": null,
      "AEHLGT": "HLGT_0709",
      "AEHLGTCD": null,
      "AEBODSYS": "INFECTIONS AND INFESTATIONS",
      "AESOC": "INFECTIONS AND INFESTATIONS",
      "AESOCCD": null,
      "AESEV": "MILD",
      "AESER": "N",
      "AESCAN": "N",
      "AESCONG": "N",
      "AESDISAB": "N",
      "AESDTH": "N",
      "AESHOSP": "N",
      "AESLIFE": "N",
      "AESOD": "N",
      "AEREL": "NONE",
      "AEACN": "",
      "AEOUT": "RECOVERED/RESOLVED",
      "AESEQ": 5.0,
      "TRTEMFL": "Y",
      "AOCCFL": "",
      "AOCCSFL": "Y",
      "AOCCPFL": "Y",
      "AOCC02FL": "",
      "AOCC03FL": "",
      "AOCC04FL": "",
      "CQ01NAM": "",
      "AOCC01FL": ""
    },
    {
      "STUDYID": "CDISCPILOT01",
      "SITEID": "701",
      "USUBJID": "01-701-1180",
      "TRTA": "Xanomeline High Dose",
      "TRTAN": 81.0,
      "AGE": 56.0,
      "AGEGR1": "<65",
      "AGEGR1N": 1.0,
      "RACE": "WHITE",
      "RACEN": 1.0,
      "SEX": "M",
      "SAFFL": "Y",
      "TRTSDT": 19401.0,
      "TRTEDT": 19435.0,
      "ASTDT": 19404.0,
      "ASTDTF": "",
      "ASTDY": 4.0,
      "AENDT": 19436.0,
      "AENDY": 36.0,
      "ADURN": 33.0,
      "ADURU": "DAY",
      "AETERM": "MICTURITION URGENCY",
      "AELLT": "URINARY URGENCY",
      "AELLTCD": null,
      "AEDECOD": "MICTURITION URGENCY",
      "AEPTCD": null,
      "AEHLT": "HLT_0294",
      "AEHLTCD": null,
      "AEHLGT": "HLGT_0483",
      "AEHLGTCD": null,
      "AEBODSYS": "RENAL AND URINARY DISORDERS",
      "AESOC": "RENAL AND URINARY DISORDERS",
      "AESOCCD": null,
      "AESEV": "MILD",
      "AESER": "N",
      "AESCAN": "N",
      "AESCONG": "N",
      "AESDISAB": "N",
      "AESDTH": "N",
      "AESHOSP": "N",
      "AESLIFE": "N",
      "AESOD": "N",
      "AEREL": "POSSIBLE",
      "AEACN": "",
      "AEOUT": "RECOVERED/RESOLVED",
      "AESEQ": 6.0,
      "TRTEMFL": "Y",
      "AOCCFL": "",
      "AOCCSFL": "",
      "AOCCPFL": "",
      "AOCC02FL": "",
      "AOCC03FL": "",
      "AOCC04FL": "",
      "CQ01NAM": "",
      "AOCC01FL": ""
    },
    {
      "STUDYID": "CDISCPILOT01",
      "SITEID": "701",
      "USUBJID": "01-701-1180",
      "TRTA": "Xanomeline High Dose",
      "TRTAN": 81.0,
      "AGE": 56.0,
      "AGEGR1": "<65",
      "AGEGR1N": 1.0,
      "RACE": "WHITE",
      "RACEN": 1.0,
      "SEX": "M",
      "SAFFL": "Y",
      "TRTSDT": 19401.0,
      "TRTEDT": 19435.0,
      "ASTDT": 19436.0,
      "ASTDTF": "",
      "ASTDY": 36.0,
      "AENDT": NaN,
      "AENDY": NaN,
      "ADURN": NaN,
      "ADURU": "",
      "AETERM": "APPLICATION SITE VESICLES",
      "AELLT": "APPLICATION SITE BLISTER",
      "AELLTCD": null,
      "AEDECOD": "APPLICATION SITE VESICLES",
      "AEPTCD": null,
      "AEHLT": "HLT_0180",
      "AEHLTCD": null,
      "AEHLGT": "HLGT_0576",
      "AEHLGTCD": null,
      "AEBODSYS": "GENERAL DISORDERS AND ADMINISTRATION SITE CONDITIONS",
      "AESOC": "GENERAL DISORDERS AND ADMINISTRATION SITE CONDITIONS",
      "AESOCCD": null,
      "AESEV": "MODERATE",
      "AESER": "N",
      "AESCAN": "N",
      "AESCONG": "N",
      "AESDISAB": "N",
      "AESDTH": "N",
      "AESHOSP": "N",
      "AESLIFE": "N",
      "AESOD": "N",
      "AEREL": "POSSIBLE",
      "AEACN": "",
      "AEOUT": "NOT RECOVERED/NOT RESOLVED",
      "AESEQ": 7.0,
      "TRTEMFL": "Y",
      "AOCCFL": "",
      "AOCCSFL": "Y",
      "AOCCPFL": "Y",
      "AOCC02FL": "",
      "AOCC03FL": "",
      "AOCC04FL": "",
      "CQ01NAM": "DERMATOLOGIC EVENTS",
      "AOCC01FL": "Y"
    },
    {
      "STUDYID": "CDISCPILOT01",
      "SITEID": "701",
      "USUBJID": "01-701-1180",
      "TRTA": "Xanomeline High Dose",
      "TRTAN": 81.0,
      "AGE": 56.0,
      "AGEGR1": "<65",
      "AGEGR1N": 1.0,
      "RACE": "WHITE",
      "RACEN": 1.0,
      "SEX": "M",
      "SAFFL": "Y",
      "TRTSDT": 19401.0,
      "TRTEDT": 19435.0,
      "ASTDT": 19436.0,
      "ASTDTF": "",
      "ASTDY": 36.0,
      "AENDT": NaN,
      "AENDY": NaN,
      "ADURN": NaN,
      "ADURU": "",
      "AETERM": "APPLICATION SITE PRURITUS",
      "AELLT": "APPLICATION SITE ITCHING",
      "AELLTCD": null,
      "AEDECOD": "APPLICATION SITE PRURITUS",
      "AEPTCD": null,
      "AEHLT": "HLT_0317",
      "AEHLTCD": null,
      "AEHLGT": "HLGT_0338",
      "AEHLGTCD": null,
      "AEBODSYS": "GENERAL DISORDERS AND ADMINISTRATION SITE CONDITIONS",
      "AESOC": "GENERAL DISORDERS AND ADMINISTRATION SITE CONDITIONS",
      "AESOCCD": null,
      "AESEV": "MODERATE",
      "AESER": "N",
      "AESCAN": "N",
      "AESCONG": "N",
      "AESDISAB": "N",
      "AESDTH": "N",
      "AESHOSP": "N",
      "AESLIFE": "N",
      "AESOD": "N",
      "AEREL": "POSSIBLE",
      "AEACN": "",
      "AEOUT": "NOT RECOVERED/NOT RESOLVED",
      "AESEQ": 8.0,
      "TRTEMFL": "Y",
      "AOCCFL": "",
      "AOCCSFL": "",
      "AOCCPFL": "Y",
      "AOCC02FL": "",
      "AOCC03FL": "",
      "AOCC04FL": "",
      "CQ01NAM": "DERMATOLOGIC EVENTS",
      "AOCC01FL": ""
    },
    {
      "STUDYID": "CDISCPILOT01",
      "SITEID": "701",
      "USUBJID": "01-701-1180",
      "TRTA": "Xanomeline High Dose",
      "TRTAN": 81.0,
      "AGE": 56.0,
      "AGEGR1": "<65",
      "AGEGR1N": 1.0,
      "RACE": "WHITE",
      "RACEN": 1.0,
      "SEX": "M",
      "SAFFL": "Y",
      "TRTSDT": 19401.0,
      "TRTEDT": 19435.0,
      "ASTDT": 19436.0,
      "ASTDTF": "",
      "ASTDY": 36.0,
      "AENDT": NaN,
      "AENDY": NaN,
      "ADURN": NaN,
      "ADURU": "",
      "AETERM": "APPLICATION SITE ERYTHEMA",
      "AELLT": "APPLICATION SITE ERYTHEMA",
      "AELLTCD": null,
      "AEDECOD": "APPLICATION SITE ERYTHEMA",
      "AEPTCD": null,
      "AEHLT": "HLT_0617",
      "AEHLTCD": null,
      "AEHLGT": "HLGT_0152",
      "AEHLGTCD": null,
      "AEBODSYS": "GENERAL DISORDERS AND ADMINISTRATION SITE CONDITIONS",
      "AESOC": "GENERAL DISORDERS AND ADMINISTRATION SITE CONDITIONS",
      "AESOCCD": null,
      "AESEV": "MODERATE",
      "AESER": "N",
      "AESCAN": "N",
      "AESCONG": "N",
      "AESDISAB": "N",
      "AESDTH": "N",
      "AESHOSP": "N",
      "AESLIFE": "N",
      "AESOD": "N",
      "AEREL": "POSSIBLE",
      "AEACN": "",
      "AEOUT": "NOT RECOVERED/NOT RESOLVED",
      "AESEQ": 9.0,
      "TRTEMFL": "Y",
      "AOCCFL": "",
      "AOCCSFL": "",
      "AOCCPFL": "Y",
      "AOCC02FL": "",
      "AOCC03FL": "",
      "AOCC04FL": "",
      "CQ01NAM": "DERMATOLOGIC EVENTS",
      "AOCC01FL": ""
    },
    {
      "STUDYID": "CDISCPILOT01",
      "SITEID": "701",
      "USUBJID": "01-701-1181",
      "TRTA": "Xanomeline High Dose",
      "TRTAN": 81.0,
      "AGE": 79.0,
      "AGEGR1": "65-80",
      "AGEGR1N": 2.0,
      "RACE": "WHITE",
      "RACEN": 1.0,
      "SEX": "F",
      "SAFFL": "Y",
      "TRTSDT": 19697.0,
      "TRTEDT": 19701.0,
      "ASTDT": 19701.0,
      "ASTDTF": "",
      "ASTDY": 5.0,
      "AENDT": 19701.0,
      "AENDY": 5.0,
      "ADURN": 1.0,
      "ADURU": "DAY",
      "AETERM": "AGITATION",
      "AELLT": "AGITATION",
      "AELLTCD": null,
      "AEDECOD": "AGITATION",
      "AEPTCD": null,
      "AEHLT": "HLT_0140",
      "AEHLTCD": null,
      "AEHLGT": "HLGT_0170",
      "AEHLGTCD": null,
      "AEBODSYS": "PSYCHIATRIC DISORDERS",
      "AESOC": "PSYCHIATRIC DISORDERS",
      "AESOCCD": null,
      "AESEV": "MODERATE",
      "AESER": "N",
      "AESCAN": "N",
      "AESCONG": "N",
      "AESDISAB": "N",
      "AESDTH": "N",
      "AESHOSP": "N",
      "AESLIFE": "N",
      "AESOD": "N",
      "AEREL": "NONE",
      "AEACN": "",
      "AEOUT": "RECOVERED/RESOLVED",
      "AESEQ": 1.0,
      "TRTEMFL": "Y",
      "AOCCFL": "Y",
      "AOCCSFL": "Y",
      "AOCCPFL": "Y",
      "AOCC02FL": "",
      "AOCC03FL": "",
      "AOCC04FL": "",
      "CQ01NAM": "",
      "AOCC01FL": ""
    },
    {
      "STUDYID": "CDISCPILOT01",
      "SITEID": "701",
      "USUBJID": "01-701-1188",
      "TRTA": "Xanomeline Low Dose",
      "TRTAN": 54.0,
      "AGE": 71.0,
      "AGEGR1": "65-80",
      "AGEGR1N": 2.0,
      "RACE": "WHITE",
      "RACEN": 1.0,
      "SEX": "M",
      "SAFFL": "Y",
      "TRTSDT": 19404.0,
      "TRTEDT": 19441.0,
      "ASTDT": 19405.0,
      "ASTDTF": "",
      "ASTDY": 2.0,
      "AENDT": NaN,
      "AENDY": NaN,
      "ADURN": NaN,
      "ADURU": "",
      "AETERM": "ERYTHEMA",
      "AELLT": "ERYTHEMA",
      "AELLTCD": null,
      "AEDECOD": "ERYTHEMA",
      "AEPTCD": null,
      "AEHLT": "HLT_0284",
      "AEHLTCD": null,
      "AEHLGT": "HLGT_0192",
      "AEHLGTCD": null,
      "AEBODSYS": "SKIN AND SUBCUTANEOUS TISSUE DISORDERS",
      "AESOC": "SKIN AND SUBCUTANEOUS TISSUE DISORDERS",
      "AESOCCD": null,
      "AESEV": "MILD",
      "AESER": "N",
      "AESCAN": "N",
      "AESCONG": "N",
      "AESDISAB": "N",
      "AESDTH": "N",
      "AESHOSP": "N",
      "AESLIFE": "N",
      "AESOD": "N",
      "AEREL": "PROBABLE",
      "AEACN": "",
      "AEOUT": "NOT RECOVERED/NOT RESOLVED",
      "AESEQ": 1.0,
      "TRTEMFL": "Y",
      "AOCCFL": "Y",
      "AOCCSFL": "Y",
      "AOCCPFL": "Y",
      "AOCC02FL": "",
      "AOCC03FL": "",
      "AOCC04FL": "",
      "CQ01NAM": "DERMATOLOGIC EVENTS",
      "AOCC01FL": "Y"
    },
    {
      "STUDYID": "CDISCPILOT01",
      "SITEID": "701",
      "USUBJID": "01-701-1188",
      "TRTA": "Xanomeline Low Dose",
      "TRTAN": 54.0,
      "AGE": 71.0,
      "AGEGR1": "65-80",
      "AGEGR1N": 2.0,
      "RACE": "WHITE",
      "RACEN": 1.0,
      "SEX": "M",
      "SAFFL": "Y",
      "TRTSDT": 19404.0,
      "TRTEDT": 19441.0,
      "ASTDT": 19405.0,
      "ASTDTF": "",
      "ASTDY": 2.0,
      "AENDT": NaN,
      "AENDY": NaN,
      "ADURN": NaN,
      "ADURU": "",
      "AETERM": "PRURITUS",
      "AELLT": "ITCHING",
      "AELLTCD": null,
      "AEDECOD": "PRURITUS",
      "AEPTCD": null,
      "AEHLT": "HLT_0778",
      "AEHLTCD": null,
      "AEHLGT": "HLGT_0695",
      "AEHLGTCD": null,
      "AEBODSYS": "SKIN AND SUBCUTANEOUS TISSUE DISORDERS",
      "AESOC": "SKIN AND SUBCUTANEOUS TISSUE DISORDERS",
      "AESOCCD": null,
      "AESEV": "MILD",
      "AESER": "N",
      "AESCAN": "N",
      "AESCONG": "N",
      "AESDISAB": "N",
      "AESDTH": "N",
      "AESHOSP": "N",
      "AESLIFE": "N",
      "AESOD": "N",
      "AEREL": "PROBABLE",
      "AEACN": "",
      "AEOUT": "NOT RECOVERED/NOT RESOLVED",
      "AESEQ": 2.0,
      "TRTEMFL": "Y",
      "AOCCFL": "",
      "AOCCSFL": "",
      "AOCCPFL": "Y",
      "AOCC02FL": "",
      "AOCC03FL": "",
      "AOCC04FL": "",
      "CQ01NAM": "DERMATOLOGIC EVENTS",
      "AOCC01FL": ""
    },
    {
      "STUDYID": "CDISCPILOT01",
      "SITEID": "701",
      "USUBJID": "01-701-1188",
      "TRTA": "Xanomeline Low Dose",
      "TRTAN": 54.0,
      "AGE": 71.0,
      "AGEGR1": "65-80",
      "AGEGR1N": 2.0,
      "RACE": "WHITE",
      "RACEN": 1.0,
      "SEX": "M",
      "SAFFL": "Y",
      "TRTSDT": 19404.0,
      "TRTEDT": 19441.0,
      "ASTDT": 19405.0,
      "ASTDTF": "",
      "ASTDY": 2.0,
      "AENDT": NaN,
      "AENDY": NaN,
      "ADURN": NaN,
      "ADURU": "",
      "AETERM": "ERYTHEMA",
      "AELLT": "ERYTHEMA",
      "AELLTCD": null,
      "AEDECOD": "ERYTHEMA",
      "AEPTCD": null,
      "AEHLT": "HLT_0284",
      "AEHLTCD": null,
      "AEHLGT": "HLGT_0192",
      "AEHLGTCD": null,
      "AEBODSYS": "SKIN AND SUBCUTANEOUS TISSUE DISORDERS",
      "AESOC": "SKIN AND SUBCUTANEOUS TISSUE DISORDERS",
      "AESOCCD": null,
      "AESEV": "MODERATE",
      "AESER": "N",
      "AESCAN": "N",
      "AESCONG": "N",
      "AESDISAB": "N",
      "AESDTH": "N",
      "AESHOSP": "N",
      "AESLIFE": "N",
      "AESOD": "N",
      "AEREL": "PROBABLE",
      "AEACN": "",
      "AEOUT": "NOT RECOVERED/NOT RESOLVED",
      "AESEQ": 3.0,
      "TRTEMFL": "Y",
      "AOCCFL": "",
      "AOCCSFL": "",
      "AOCCPFL": "",
      "AOCC02FL": "",
      "AOCC03FL": "",
      "AOCC04FL": "",
      "CQ01NAM": "DERMATOLOGIC EVENTS",
      "AOCC01FL": ""
    },
    {
      "STUDYID": "CDISCPILOT01",
      "SITEID": "701",
      "USUBJID": "01-701-1188",
      "TRTA": "Xanomeline Low Dose",
      "TRTAN": 54.0,
      "AGE": 71.0,
      "AGEGR1": "65-80",
      "AGEGR1N": 2.0,
      "RACE": "WHITE",
      "RACEN": 1.0,
      "SEX": "M",
      "SAFFL": "Y",
      "TRTSDT": 19404.0,
      "TRTEDT": 19441.0,
      "ASTDT": 19405.0,
      "ASTDTF": "",
      "ASTDY": 2.0,
      "AENDT": NaN,
      "AENDY": NaN,
      "ADURN": NaN,
      "ADURU": "",
      "AETERM": "PRURITUS",
      "AELLT": "ITCHING",
      "AELLTCD": null,
      "AEDECOD": "PRURITUS",
      "AEPTCD": null,
      "AEHLT": "HLT_0778",
      "AEHLTCD": null,
      "AEHLGT": "HLGT_0695",
      "AEHLGTCD": null,
      "AEBODSYS": "SKIN AND SUBCUTANEOUS TISSUE DISORDERS",
      "AESOC": "SKIN AND SUBCUTANEOUS TISSUE DISORDERS",
      "AESOCCD": null,
      "AESEV": "MODERATE",
      "AESER": "N",
      "AESCAN": "N",
      "AESCONG": "N",
      "AESDISAB": "N",
      "AESDTH": "N",
      "AESHOSP": "N",
      "AESLIFE": "N",
      "AESOD": "N",
      "AEREL": "PROBABLE",
      "AEACN": "",
      "AEOUT": "NOT RECOVERED/NOT RESOLVED",
      "AESEQ": 4.0,
      "TRTEMFL": "Y",
      "AOCCFL": "",
      "AOCCSFL": "",
      "AOCCPFL": "",
      "AOCC02FL": "",
      "AOCC03FL": "",
      "AOCC04FL": "",
      "CQ01NAM": "DERMATOLOGIC EVENTS",
      "AOCC01FL": ""
    },
    {
      "STUDYID": "CDISCPILOT01",
      "SITEID": "701",
      "USUBJID": "01-701-1188",
      "TRTA": "Xanomeline Low Dose",
      "TRTAN": 54.0,
      "AGE": 71.0,
      "AGEGR1": "65-80",
      "AGEGR1N": 2.0,
      "RACE": "WHITE",
      "RACEN": 1.0,
      "SEX": "M",
      "SAFFL": "Y",
      "TRTSDT": 19404.0,
      "TRTEDT": 19441.0,
      "ASTDT": 19421.0,
      "ASTDTF": "",
      "ASTDY": 18.0,
      "AENDT": NaN,
      "AENDY": NaN,
      "ADURN": NaN,
      "ADURU": "",
      "AETERM": "URTICARIA",
      "AELLT": "WELTS",
      "AELLTCD": null,
      "AEDECOD": "URTICARIA",
      "AEPTCD": null,
      "AEHLT": "HLT_0420",
      "AEHLTCD": null,
      "AEHLGT": "HLGT_0705",
      "AEHLGTCD": null,
      "AEBODSYS": "SKIN AND SUBCUTANEOUS TISSUE DISORDERS",
      "AESOC": "SKIN AND SUBCUTANEOUS TISSUE DISORDERS",
      "AESOCCD": null,
      "AESEV": "MILD",
      "AESER": "N",
      "AESCAN": "N",
      "AESCONG": "N",
      "AESDISAB": "N",
      "AESDTH": "N",
      "AESHOSP": "N",
      "AESLIFE": "N",
      "AESOD": "N",
      "AEREL": "PROBABLE",
      "AEACN": "",
      "AEOUT": "NOT RECOVERED/NOT RESOLVED",
      "AESEQ": 5.0,
      "TRTEMFL": "Y",
      "AOCCFL": "",
      "AOCCSFL": "",
      "AOCCPFL": "Y",
      "AOCC02FL": "",
      "AOCC03FL": "",
      "AOCC04FL": "",
      "CQ01NAM": "DERMATOLOGIC EVENTS",
      "AOCC01FL": ""
    },
    {
      "STUDYID": "CDISCPILOT01",
      "SITEID": "701",
      "USUBJID": "01-701-1188",
      "TRTA": "Xanomeline Low Dose",
      "TRTAN": 54.0,
      "AGE": 71.0,
      "AGEGR1": "65-80",
      "AGEGR1N": 2.0,
      "RACE": "WHITE",
      "RACEN": 1.0,
      "SEX": "M",
      "SAFFL": "Y",
      "TRTSDT": 19404.0,
      "TRTEDT": 19441.0,
      "ASTDT": 19421.0,
      "ASTDTF": "",
      "ASTDY": 18.0,
      "AENDT": NaN,
      "AENDY": NaN,
      "ADURN": NaN,
      "ADURU": "",
      "AETERM": "URTICARIA",
      "AELLT": "WELTS",
      "AELLTCD": null,
      "AEDECOD": "URTICARIA",
      "AEPTCD": null,
      "AEHLT": "HLT_0420",
      "AEHLTCD": null,
      "AEHLGT": "HLGT_0705",
      "AEHLGTCD": null,
      "AEBODSYS": "SKIN AND SUBCUTANEOUS TISSUE DISORDERS",
      "AESOC": "SKIN AND SUBCUTANEOUS TISSUE DISORDERS",
      "AESOCCD": null,
      "AESEV": "MODERATE",
      "AESER": "N",
      "AESCAN": "N",
      "AESCONG": "N",
      "AESDISAB": "N",
      "AESDTH": "N",
      "AESHOSP": "N",
      "AESLIFE": "N",
      "AESOD": "N",
      "AEREL": "PROBABLE",
      "AEACN": "",
      "AEOUT": "NOT RECOVERED/NOT RESOLVED",
      "AESEQ": 6.0,
      "TRTEMFL": "Y",
      "AOCCFL": "",
      "AOCCSFL": "",
      "AOCCPFL": "",
      "AOCC02FL": "",
      "AOCC03FL": "",
      "AOCC04FL": "",
      "CQ01NAM": "DERMATOLOGIC EVENTS",
      "AOCC01FL": ""
    },
    {
      "STUDYID": "CDISCPILOT01",
      "SITEID": "701",
      "USUBJID": "01-701-1188",
      "TRTA": "Xanomeline Low Dose",
      "TRTAN": 54.0,
      "AGE": 71.0,
      "AGEGR1": "65-80",
      "AGEGR1N": 2.0,
      "RACE": "WHITE",
      "RACEN": 1.0,
      "SEX": "M",
      "SAFFL": "Y",
      "TRTSDT": 19404.0,
      "TRTEDT": 19441.0,
      "ASTDT": 19438.0,
      "ASTDTF": "",
      "ASTDY": 35.0,
      "AENDT": NaN,
      "AENDY": NaN,
      "ADURN": NaN,
      "ADURU": "",
      "AETERM": "APPLICATION SITE URTICARIA",
      "AELLT": "APPLICATION SITE URTICARIA",
      "AELLTCD": null,
      "AEDECOD": "APPLICATION SITE URTICARIA",
      "AEPTCD": null,
      "AEHLT": "HLT_0196",
      "AEHLTCD": null,
      "AEHLGT": "HLGT_0233",
      "AEHLGTCD": null,
      "AEBODSYS": "GENERAL DISORDERS AND ADMINISTRATION SITE CONDITIONS",
      "AESOC": "GENERAL DISORDERS AND ADMINISTRATION SITE CONDITIONS",
      "AESOCCD": null,
      "AESEV": "MILD",
      "AESER": "N",
      "AESCAN": "N",
      "AESCONG": "N",
      "AESDISAB": "N",
      "AESDTH": "N",
      "AESHOSP": "N",
      "AESLIFE": "N",
      "AESOD": "N",
      "AEREL": "PROBABLE",
      "AEACN": "",
      "AEOUT": "NOT RECOVERED/NOT RESOLVED",
      "AESEQ": 7.0,
      "TRTEMFL": "Y",
      "AOCCFL": "",
      "AOCCSFL": "Y",
      "AOCCPFL": "Y",
      "AOCC02FL": "",
      "AOCC03FL": "",
      "AOCC04FL": "",
      "CQ01NAM": "DERMATOLOGIC EVENTS",
      "AOCC01FL": ""
    },
    {
      "STUDYID": "CDISCPILOT01",
      "SITEID": "701",
      "USUBJID": "01-701-1188",
      "TRTA": "Xanomeline Low Dose",
      "TRTAN": 54.0,
      "AGE": 71.0,
      "AGEGR1": "65-80",
      "AGEGR1N": 2.0,
      "RACE": "WHITE",
      "RACEN": 1.0,
      "SEX": "M",
      "SAFFL": "Y",
      "TRTSDT": 19404.0,
      "TRTEDT": 19441.0,
      "ASTDT": 19438.0,
      "ASTDTF": "",
      "ASTDY": 35.0,
      "AENDT": NaN,
      "AENDY": NaN,
      "ADURN": NaN,
      "ADURU": "",
      "AETERM": "URTICARIA",
      "AELLT": "WELTS",
      "AELLTCD": null,
      "AEDECOD": "URTICARIA",
      "AEPTCD": null,
      "AEHLT": "HLT_0420",
      "AEHLTCD": null,
      "AEHLGT": "HLGT_0705",
      "AEHLGTCD": null,
      "AEBODSYS": "SKIN AND SUBCUTANEOUS TISSUE DISORDERS",
      "AESOC": "SKIN AND SUBCUTANEOUS TISSUE DISORDERS",
      "AESOCCD": null,
      "AESEV": "MILD",
      "AESER": "N",
      "AESCAN": "N",
      "AESCONG": "N",
      "AESDISAB": "N",
      "AESDTH": "N",
      "AESHOSP": "N",
      "AESLIFE": "N",
      "AESOD": "N",
      "AEREL": "PROBABLE",
      "AEACN": "",
      "AEOUT": "NOT RECOVERED/NOT RESOLVED",
      "AESEQ": 8.0,
      "TRTEMFL": "Y",
      "AOCCFL": "",
      "AOCCSFL": "",
      "AOCCPFL": "",
      "AOCC02FL": "",
      "AOCC03FL": "",
      "AOCC04FL": "",
      "CQ01NAM": "DERMATOLOGIC EVENTS",
      "AOCC01FL": ""
    },
    {
      "STUDYID": "CDISCPILOT01",
      "SITEID": "701",
      "USUBJID": "01-701-1192",
      "TRTA": "Xanomeline Low Dose",
      "TRTAN": 54.0,
      "AGE": 80.0,
      "AGEGR1": "65-80",
      "AGEGR1N": 2.0,
      "RACE": "WHITE",
      "RACEN": 1.0,
      "SEX": "F",
      "SAFFL": "Y",
      "TRTSDT": 19196.0,
      "TRTEDT": 19378.0,
      "ASTDT": 19208.0,
      "ASTDTF": "",
      "ASTDY": 13.0,
      "AENDT": 19208.0,
      "AENDY": 13.0,
      "ADURN": 1.0,
      "ADURU": "DAY",
      "AETERM": "NASAL MUCOSA BIOPSY",
      "AELLT": "NASAL MUCOSA BIOPSY",
      "AELLTCD": null,
      "AEDECOD": "NASAL MUCOSA BIOPSY",
      "AEPTCD": null,
      "AEHLT": "HLT_0680",
      "AEHLTCD": null,
      "AEHLGT": "HLGT_0396",
      "AEHLGTCD": null,
      "AEBODSYS": "INVESTIGATIONS",
      "AESOC": "INVESTIGATIONS",
      "AESOCCD": null,
      "AESEV": "MILD",
      "AESER": "N",
      "AESCAN": "N",
      "AESCONG": "N",
      "AESDISAB": "N",
      "AESDTH": "N",
      "AESHOSP": "N",
      "AESLIFE": "N",
      "AESOD": "N",
      "AEREL": "NONE",
      "AEACN": "",
      "AEOUT": "RECOVERED/RESOLVED",
      "AESEQ": 1.0,
      "TRTEMFL": "Y",
      "AOCCFL": "Y",
      "AOCCSFL": "Y",
      "AOCCPFL": "Y",
      "AOCC02FL": "",
      "AOCC03FL": "",
      "AOCC04FL": "",
      "CQ01NAM": "",
      "AOCC01FL": ""
    },
    {
      "STUDYID": "CDISCPILOT01",
      "SITEID": "701",
      "USUBJID": "01-701-1192",
      "TRTA": "Xanomeline Low Dose",
      "TRTAN": 54.0,
      "AGE": 80.0,
      "AGEGR1": "65-80",
      "AGEGR1N": 2.0,
      "RACE": "WHITE",
      "RACEN": 1.0,
      "SEX": "F",
      "SAFFL": "Y",
      "TRTSDT": 19196.0,
      "TRTEDT": 19378.0,
      "ASTDT": 19212.0,
      "ASTDTF": "",
      "ASTDY": 17.0,
      "AENDT": 19250.0,
      "AENDY": 55.0,
      "ADURN": 39.0,
      "ADURU": "DAY",
      "AETERM": "SECRETION DISCHARGE",
      "AELLT": "SECRETION DISCHARGE",
      "AELLTCD": null,
      "AEDECOD": "SECRETION DISCHARGE",
      "AEPTCD": null,
      "AEHLT": "HLT_0683",
      "AEHLTCD": null,
      "AEHLGT": "HLGT_0575",
      "AEHLGTCD": null,
      "AEBODSYS": "GENERAL DISORDERS AND ADMINISTRATION SITE CONDITIONS",
      "AESOC": "GENERAL DISORDERS AND ADMINISTRATION SITE CONDITIONS",
      "AESOCCD": null,
      "AESEV": "MILD",
      "AESER": "N",
      "AESCAN": "N",
      "AESCONG": "N",
      "AESDISAB": "N",
      "AESDTH": "N",
      "AESHOSP": "N",
      "AESLIFE": "N",
      "AESOD": "N",
      "AEREL": "NONE",
      "AEACN": "",
      "AEOUT": "NOT RECOVERED/NOT RESOLVED",
      "AESEQ": 2.0,
      "TRTEMFL": "Y",
      "AOCCFL": "",
      "AOCCSFL": "Y",
      "AOCCPFL": "Y",
      "AOCC02FL": "",
      "AOCC03FL": "",
      "AOCC04FL": "",
      "CQ01NAM": "",
      "AOCC01FL": ""
    },
    {
      "STUDYID": "CDISCPILOT01",
      "SITEID": "701",
      "USUBJID": "01-701-1192",
      "TRTA": "Xanomeline Low Dose",
      "TRTAN": 54.0,
      "AGE": 80.0,
      "AGEGR1": "65-80",
      "AGEGR1N": 2.0,
      "RACE": "WHITE",
      "RACEN": 1.0,
      "SEX": "F",
      "SAFFL": "Y",
      "TRTSDT": 19196.0,
      "TRTEDT": 19378.0,
      "ASTDT": 19212.0,
      "ASTDTF": "",
      "ASTDY": 17.0,
      "AENDT": 19250.0,
      "AENDY": 55.0,
      "ADURN": 39.0,
      "ADURU": "DAY",
      "AETERM": "ERYTHEMA",
      "AELLT": "ERYTHEMA FACIAL",
      "AELLTCD": null,
      "AEDECOD": "ERYTHEMA",
      "AEPTCD": null,
      "AEHLT": "HLT_0284",
      "AEHLTCD": null,
      "AEHLGT": "HLGT_0192",
      "AEHLGTCD": null,
      "AEBODSYS": "SKIN AND SUBCUTANEOUS TISSUE DISORDERS",
      "AESOC": "SKIN AND SUBCUTANEOUS TISSUE DISORDERS",
      "AESOCCD": null,
      "AESEV": "MILD",
      "AESER": "N",
      "AESCAN": "N",
      "AESCONG": "N",
      "AESDISAB": "N",
      "AESDTH": "N",
      "AESHOSP": "N",
      "AESLIFE": "N",
      "AESOD": "N",
      "AEREL": "NONE",
      "AEACN": "",
      "AEOUT": "NOT RECOVERED/NOT RESOLVED",
      "AESEQ": 3.0,
      "TRTEMFL": "Y",
      "AOCCFL": "",
      "AOCCSFL": "Y",
      "AOCCPFL": "Y",
      "AOCC02FL": "",
      "AOCC03FL": "",
      "AOCC04FL": "",
      "CQ01NAM": "DERMATOLOGIC EVENTS",
      "AOCC01FL": "Y"
    },
    {
      "STUDYID": "CDISCPILOT01",
      "SITEID": "701",
      "USUBJID": "01-701-1192",
      "TRTA": "Xanomeline Low Dose",
      "TRTAN": 54.0,
      "AGE": 80.0,
      "AGEGR1": "65-80",
      "AGEGR1N": 2.0,
      "RACE": "WHITE",
      "RACEN": 1.0,
      "SEX": "F",
      "SAFFL": "Y",
      "TRTSDT": 19196.0,
      "TRTEDT": 19378.0,
      "ASTDT": 18414.0,
      "ASTDTF": "D",
      "ASTDY": -782.0,
      "AENDT": NaN,
      "AENDY": NaN,
      "ADURN": NaN,
      "ADURU": "",
      "AETERM": "COUGH",
      "AELLT": "COUGH",
      "AELLTCD": null,
      "AEDECOD": "COUGH",
      "AEPTCD": null,
      "AEHLT": "HLT_0701",
      "AEHLTCD": null,
      "AEHLGT": "HLGT_0280",
      "AEHLGTCD": null,
      "AEBODSYS": "RESPIRATORY, THORACIC AND MEDIASTINAL DISORDERS",
      "AESOC": "RESPIRATORY, THORACIC AND MEDIASTINAL DISORDERS",
      "AESOCCD": null,
      "AESEV": "MODERATE",
      "AESER": "N",
      "AESCAN": "N",
      "AESCONG": "N",
      "AESDISAB": "N",
      "AESDTH": "N",
      "AESHOSP": "N",
      "AESLIFE": "N",
      "AESOD": "N",
      "AEREL": "NONE",
      "AEACN": "",
      "AEOUT": "NOT RECOVERED/NOT RESOLVED",
      "AESEQ": 4.0,
      "TRTEMFL": "",
      "AOCCFL": "",
      "AOCCSFL": "",
      "AOCCPFL": "",
      "AOCC02FL": "",
      "AOCC03FL": "",
      "AOCC04FL": "",
      "CQ01NAM": "",
      "AOCC01FL": ""
    },
    {
      "STUDYID": "CDISCPILOT01",
      "SITEID": "701",
      "USUBJID": "01-701-1192",
      "TRTA": "Xanomeline Low Dose",
      "TRTAN": 54.0,
      "AGE": 80.0,
      "AGEGR1": "65-80",
      "AGEGR1N": 2.0,
      "RACE": "WHITE",
      "RACEN": 1.0,
      "SEX": "F",
      "SAFFL": "Y",
      "TRTSDT": 19196.0,
      "TRTEDT": 19378.0,
      "ASTDT": 19212.0,
      "ASTDTF": "",
      "ASTDY": 17.0,
      "AENDT": 19250.0,
      "AENDY": 55.0,
      "ADURN": 39.0,
      "ADURU": "DAY",
      "AETERM": "SECRETION DISCHARGE",
      "AELLT": "SECRETION DISCHARGE",
      "AELLTCD": null,
      "AEDECOD": "SECRETION DISCHARGE",
      "AEPTCD": null,
      "AEHLT": "HLT_0683",
      "AEHLTCD": null,
      "AEHLGT": "HLGT_0575",
      "AEHLGTCD": null,
      "AEBODSYS": "GENERAL DISORDERS AND ADMINISTRATION SITE CONDITIONS",
      "AESOC": "GENERAL DISORDERS AND ADMINISTRATION SITE CONDITIONS",
      "AESOCCD": null,
      "AESEV": "MILD",
      "AESER": "N",
      "AESCAN": "N",
      "AESCONG": "N",
      "AESDISAB": "N",
      "AESDTH": "N",
      "AESHOSP": "N",
      "AESLIFE": "N",
      "AESOD": "N",
      "AEREL": "NONE",
      "AEACN": "",
      "AEOUT": "RECOVERED/RESOLVED",
      "AESEQ": 5.0,
      "TRTEMFL": "Y",
      "AOCCFL": "",
      "AOCCSFL": "",
      "AOCCPFL": "",
      "AOCC02FL": "",
      "AOCC03FL": "",
      "AOCC04FL": "",
      "CQ01NAM": "",
      "AOCC01FL": ""
    },
    {
      "STUDYID": "CDISCPILOT01",
      "SITEID": "701",
      "USUBJID": "01-701-1192",
      "TRTA": "Xanomeline Low Dose",
      "TRTAN": 54.0,
      "AGE": 80.0,
      "AGEGR1": "65-80",
      "AGEGR1N": 2.0,
      "RACE": "WHITE",
      "RACEN": 1.0,
      "SEX": "F",
      "SAFFL": "Y",
      "TRTSDT": 19196.0,
      "TRTEDT": 19378.0,
      "ASTDT": 19212.0,
      "ASTDTF": "",
      "ASTDY": 17.0,
      "AENDT": 19250.0,
      "AENDY": 55.0,
      "ADURN": 39.0,
      "ADURU": "DAY",
      "AETERM": "ERYTHEMA",
      "AELLT": "ERYTHEMA FACIAL",
      "AELLTCD": null,
      "AEDECOD": "ERYTHEMA",
      "AEPTCD": null,
      "AEHLT": "HLT_0284",
      "AEHLTCD": null,
      "AEHLGT": "HLGT_0192",
      "AEHLGTCD": null,
      "AEBODSYS": "SKIN AND SUBCUTANEOUS TISSUE DISORDERS",
      "AESOC": "SKIN AND SUBCUTANEOUS TISSUE DISORDERS",
      "AESOCCD": null,
      "AESEV": "MILD",
      "AESER": "N",
      "AESCAN": "N",
      "AESCONG": "N",
      "AESDISAB": "N",
      "AESDTH": "N",
      "AESHOSP": "N",
      "AESLIFE": "N",
      "AESOD": "N",
      "AEREL": "NONE",
      "AEACN": "",
      "AEOUT": "RECOVERED/RESOLVED",
      "AESEQ": 6.0,
      "TRTEMFL": "Y",
      "AOCCFL": "",
      "AOCCSFL": "",
      "AOCCPFL": "",
      "AOCC02FL": "",
      "AOCC03FL": "",
      "AOCC04FL": "",
      "CQ01NAM": "DERMATOLOGIC EVENTS",
      "AOCC01FL": ""
    },
    {
      "STUDYID": "CDISCPILOT01",
      "SITEID": "701",
      "USUBJID": "01-701-1192",
      "TRTA": "Xanomeline Low Dose",
      "TRTAN": 54.0,
      "AGE": 80.0,
      "AGEGR1": "65-80",
      "AGEGR1N": 2.0,
      "RACE": "WHITE",
      "RACEN": 1.0,
      "SEX": "F",
      "SAFFL": "Y",
      "TRTSDT": 19196.0,
      "TRTEDT": 19378.0,
      "ASTDT": 19243.0,
      "ASTDTF": "",
      "ASTDY": 48.0,
      "AENDT": 19272.0,
      "AENDY": 77.0,
      "ADURN": 30.0,
      "ADURU": "DAY",
      "AETERM": "PNEUMONIA",
      "AELLT": "PNEUMONIA",
      "AELLTCD": null,
      "AEDECOD": "PNEUMONIA",
      "AEPTCD": null,
      "AEHLT": "HLT_0251",
      "AEHLTCD": null,
      "AEHLGT": "HLGT_0671",
      "AEHLGTCD": null,
      "AEBODSYS": "INFECTIONS AND INFESTATIONS",
      "AESOC": "INFECTIONS AND INFESTATIONS",
      "AESOCCD": null,
      "AESEV": "MODERATE",
      "AESER": "N",
      "AESCAN": "N",
      "AESCONG": "N",
      "AESDISAB": "N",
      "AESDTH": "N",
      "AESHOSP": "Y",
      "AESLIFE": "N",
      "AESOD": "N",
      "AEREL": "NONE",
      "AEACN": "",
      "AEOUT": "NOT RECOVERED/NOT RESOLVED",
      "AESEQ": 7.0,
      "TRTEMFL": "Y",
      "AOCCFL": "",
      "AOCCSFL": "Y",
      "AOCCPFL": "Y",
      "AOCC02FL": "",
      "AOCC03FL": "",
      "AOCC04FL": "",
      "CQ01NAM": "",
      "AOCC01FL": ""
    },
    {
      "STUDYID": "CDISCPILOT01",
      "SITEID": "701",
      "USUBJID": "01-701-1192",
      "TRTA": "Xanomeline Low Dose",
      "TRTAN": 54.0,
      "AGE": 80.0,
      "AGEGR1": "65-80",
      "AGEGR1N": 2.0,
      "RACE": "WHITE",
      "RACEN": 1.0,
      "SEX": "F",
      "SAFFL": "Y",
      "TRTSDT": 19196.0,
      "TRTEDT": 19378.0,
      "ASTDT": 19243.0,
      "ASTDTF": "",
      "ASTDY": 48.0,
      "AENDT": 19266.0,
      "AENDY": 71.0,
      "ADURN": 24.0,
      "ADURU": "DAY",
      "AETERM": "MUSCULAR WEAKNESS",
      "AELLT": "MUSCULAR WEAKNESS",
      "AELLTCD": null,
      "AEDECOD": "MUSCULAR WEAKNESS",
      "AEPTCD": null,
      "AEHLT": "HLT_0444",
      "AEHLTCD": null,
      "AEHLGT": "HLGT_0211",
      "AEHLGTCD": null,
      "AEBODSYS": "MUSCULOSKELETAL AND CONNECTIVE TISSUE DISORDERS",
      "AESOC": "MUSCULOSKELETAL AND CONNECTIVE TISSUE DISORDERS",
      "AESOCCD": null,
      "AESEV": "MODERATE",
      "AESER": "N",
      "AESCAN": "N",
      "AESCONG": "N",
      "AESDISAB": "N",
      "AESDTH": "N",
      "AESHOSP": "N",
      "AESLIFE": "N",
      "AESOD": "N",
      "AEREL": "NONE",
      "AEACN": "",
      "AEOUT": "NOT RECOVERED/NOT RESOLVED",
      "AESEQ": 8.0,
      "TRTEMFL": "Y",
      "AOCCFL": "",
      "AOCCSFL": "Y",
      "AOCCPFL": "Y",
      "AOCC02FL": "",
      "AOCC03FL": "",
      "AOCC04FL": "",
      "CQ01NAM": "",
      "AOCC01FL": ""
    },
    {
      "STUDYID": "CDISCPILOT01",
      "SITEID": "701",
      "USUBJID": "01-701-1192",
      "TRTA": "Xanomeline Low Dose",
      "TRTAN": 54.0,
      "AGE": 80.0,
      "AGEGR1": "65-80",
      "AGEGR1N": 2.0,
      "RACE": "WHITE",
      "RACEN": 1.0,
      "SEX": "F",
      "SAFFL": "Y",
      "TRTSDT": 19196.0,
      "TRTEDT": 19378.0,
      "ASTDT": 18414.0,
      "ASTDTF": "D",
      "ASTDY": -782.0,
      "AENDT": NaN,
      "AENDY": NaN,
      "ADURN": NaN,
      "ADURU": "",
      "AETERM": "COUGH",
      "AELLT": "COUGH",
      "AELLTCD": null,
      "AEDECOD": "COUGH",
      "AEPTCD": null,
      "AEHLT": "HLT_0701",
      "AEHLTCD": null,
      "AEHLGT": "HLGT_0280",
      "AEHLGTCD": null,
      "AEBODSYS": "RESPIRATORY, THORACIC AND MEDIASTINAL DISORDERS",
      "AESOC": "RESPIRATORY, THORACIC AND MEDIASTINAL DISORDERS",
      "AESOCCD": null,
      "AESEV": "MILD",
      "AESER": "N",
      "AESCAN": "N",
      "AESCONG": "N",
      "AESDISAB": "N",
      "AESDTH": "N",
      "AESHOSP": "N",
      "AESLIFE": "N",
      "AESOD": "N",
      "AEREL": "NONE",
      "AEACN": "",
      "AEOUT": "NOT RECOVERED/NOT RESOLVED",
      "AESEQ": 9.0,
      "TRTEMFL": "",
      "AOCCFL": "",
      "AOCCSFL": "",
      "AOCCPFL": "",
      "AOCC02FL": "",
      "AOCC03FL": "",
      "AOCC04FL": "",
      "CQ01NAM": "",
      "AOCC01FL": ""
    },
    {
      "STUDYID": "CDISCPILOT01",
      "SITEID": "701",
      "USUBJID": "01-701-1192",
      "TRTA": "Xanomeline Low Dose",
      "TRTAN": 54.0,
      "AGE": 80.0,
      "AGEGR1": "65-80",
      "AGEGR1N": 2.0,
      "RACE": "WHITE",
      "RACEN": 1.0,
      "SEX": "F",
      "SAFFL": "Y",
      "TRTSDT": 19196.0,
      "TRTEDT": 19378.0,
      "ASTDT": 19243.0,
      "ASTDTF": "",
      "ASTDY": 48.0,
      "AENDT": 19272.0,
      "AENDY": 77.0,
      "ADURN": 30.0,
      "ADURU": "DAY",
      "AETERM": "PNEUMONIA",
      "AELLT": "PNEUMONIA",
      "AELLTCD": null,
      "AEDECOD": "PNEUMONIA",
      "AEPTCD": null,
      "AEHLT": "HLT_0251",
      "AEHLTCD": null,
      "AEHLGT": "HLGT_0671",
      "AEHLGTCD": null,
      "AEBODSYS": "INFECTIONS AND INFESTATIONS",
      "AESOC": "INFECTIONS AND INFESTATIONS",
      "AESOCCD": null,
      "AESEV": "MODERATE",
      "AESER": "N",
      "AESCAN": "N",
      "AESCONG": "N",
      "AESDISAB": "N",
      "AESDTH": "N",
      "AESHOSP": "Y",
      "AESLIFE": "N",
      "AESOD": "N",
      "AEREL": "NONE",
      "AEACN": "",
      "AEOUT": "RECOVERED/RESOLVED",
      "AESEQ": 10.0,
      "TRTEMFL": "Y",
      "AOCCFL": "",
      "AOCCSFL": "",
      "AOCCPFL": "",
      "AOCC02FL": "",
      "AOCC03FL": "",
      "AOCC04FL": "",
      "CQ01NAM": "",
      "AOCC01FL": ""
    },
    {
      "STUDYID": "CDISCPILOT01",
      "SITEID": "701",
      "USUBJID": "01-701-1192",
      "TRTA": "Xanomeline Low Dose",
      "TRTAN": 54.0,
      "AGE": 80.0,
      "AGEGR1": "65-80",
      "AGEGR1N": 2.0,
      "RACE": "WHITE",
      "RACEN": 1.0,
      "SEX": "F",
      "SAFFL": "Y",
      "TRTSDT": 19196.0,
      "TRTEDT": 19378.0,
      "ASTDT": 19243.0,
      "ASTDTF": "",
      "ASTDY": 48.0,
      "AENDT": 19266.0,
      "AENDY": 71.0,
      "ADURN": 24.0,
      "ADURU": "DAY",
      "AETERM": "MUSCULAR WEAKNESS",
      "AELLT": "MUSCULAR WEAKNESS",
      "AELLTCD": null,
      "AEDECOD": "MUSCULAR WEAKNESS",
      "AEPTCD": null,
      "AEHLT": "HLT_0444",
      "AEHLTCD": null,
      "AEHLGT": "HLGT_0211",
      "AEHLGTCD": null,
      "AEBODSYS": "MUSCULOSKELETAL AND CONNECTIVE TISSUE DISORDERS",
      "AESOC": "MUSCULOSKELETAL AND CONNECTIVE TISSUE DISORDERS",
      "AESOCCD": null,
      "AESEV": "MODERATE",
      "AESER": "N",
      "AESCAN": "N",
      "AESCONG": "N",
      "AESDISAB": "N",
      "AESDTH": "N",
      "AESHOSP": "N",
      "AESLIFE": "N",
      "AESOD": "N",
      "AEREL": "NONE",
      "AEACN": "",
      "AEOUT": "RECOVERED/RESOLVED",
      "AESEQ": 11.0,
      "TRTEMFL": "Y",
      "AOCCFL": "",
      "AOCCSFL": "",
      "AOCCPFL": "",
      "AOCC02FL": "",
      "AOCC03FL": "",
      "AOCC04FL": "",
      "CQ01NAM": "",
      "AOCC01FL": ""
    },
    {
      "STUDYID": "CDISCPILOT01",
      "SITEID": "701",
      "USUBJID": "01-701-1192",
      "TRTA": "Xanomeline Low Dose",
      "TRTAN": 54.0,
      "AGE": 80.0,
      "AGEGR1": "65-80",
      "AGEGR1N": 2.0,
      "RACE": "WHITE",
      "RACEN": 1.0,
      "SEX": "F",
      "SAFFL": "Y",
      "TRTSDT": 19196.0,
      "TRTEDT": 19378.0,
      "ASTDT": 19332.0,
      "ASTDTF": "",
      "ASTDY": 137.0,
      "AENDT": 19343.0,
      "AENDY": 148.0,
      "ADURN": 12.0,
      "ADURU": "DAY",
      "AETERM": "APPLICATION SITE IRRITATION",
      "AELLT": "APPLICATION SITE BURNING",
      "AELLTCD": null,
      "AEDECOD": "APPLICATION SITE IRRITATION",
      "AEPTCD": null,
      "AEHLT": "HLT_0061",
      "AEHLTCD": null,
      "AEHLGT": "HLGT_0346",
      "AEHLGTCD": null,
      "AEBODSYS": "GENERAL DISORDERS AND ADMINISTRATION SITE CONDITIONS",
      "AESOC": "GENERAL DISORDERS AND ADMINISTRATION SITE CONDITIONS",
      "AESOCCD": null,
      "AESEV": "MILD",
      "AESER": "N",
      "AESCAN": "N",
      "AESCONG": "N",
      "AESDISAB": "N",
      "AESDTH": "N",
      "AESHOSP": "N",
      "AESLIFE": "N",
      "AESOD": "N",
      "AEREL": "PROBABLE",
      "AEACN": "",
      "AEOUT": "NOT RECOVERED/NOT RESOLVED",
      "AESEQ": 12.0,
      "TRTEMFL": "Y",
      "AOCCFL": "",
      "AOCCSFL": "",
      "AOCCPFL": "Y",
      "AOCC02FL": "",
      "AOCC03FL": "",
      "AOCC04FL": "",
      "CQ01NAM": "DERMATOLOGIC EVENTS",
      "AOCC01FL": ""
    },
    {
      "STUDYID": "CDISCPILOT01",
      "SITEID": "701",
      "USUBJID": "01-701-1192",
      "TRTA": "Xanomeline Low Dose",
      "TRTAN": 54.0,
      "AGE": 80.0,
      "AGEGR1": "65-80",
      "AGEGR1N": 2.0,
      "RACE": "WHITE",
      "RACEN": 1.0,
      "SEX": "F",
      "SAFFL": "Y",
      "TRTSDT": 19196.0,
      "TRTEDT": 19378.0,
      "ASTDT": 19332.0,
      "ASTDTF": "",
      "ASTDY": 137.0,
      "AENDT": NaN,
      "AENDY": NaN,
      "ADURN": NaN,
      "ADURU": "",
      "AETERM": "APPLICATION SITE ERYTHEMA",
      "AELLT": "APPLICATION SITE REDNESS",
      "AELLTCD": null,
      "AEDECOD": "APPLICATION SITE ERYTHEMA",
      "AEPTCD": null,
      "AEHLT": "HLT_0617",
      "AEHLTCD": null,
      "AEHLGT": "HLGT_0152",
      "AEHLGTCD": null,
      "AEBODSYS": "GENERAL DISORDERS AND ADMINISTRATION SITE CONDITIONS",
      "AESOC": "GENERAL DISORDERS AND ADMINISTRATION SITE CONDITIONS",
      "AESOCCD": null,
      "AESEV": "MILD",
      "AESER": "N",
      "AESCAN": "N",
      "AESCONG": "N",
      "AESDISAB": "N",
      "AESDTH": "N",
      "AESHOSP": "N",
      "AESLIFE": "N",
      "AESOD": "N",
      "AEREL": "PROBABLE",
      "AEACN": "",
      "AEOUT": "NOT RECOVERED/NOT RESOLVED",
      "AESEQ": 13.0,
      "TRTEMFL": "Y",
      "AOCCFL": "",
      "AOCCSFL": "",
      "AOCCPFL": "Y",
      "AOCC02FL": "",
      "AOCC03FL": "",
      "AOCC04FL": "",
      "CQ01NAM": "DERMATOLOGIC EVENTS",
      "AOCC01FL": ""
    },
    {
      "STUDYID": "CDISCPILOT01",
      "SITEID": "701",
      "USUBJID": "01-701-1192",
      "TRTA": "Xanomeline Low Dose",
      "TRTAN": 54.0,
      "AGE": 80.0,
      "AGEGR1": "65-80",
      "AGEGR1N": 2.0,
      "RACE": "WHITE",
      "RACEN": 1.0,
      "SEX": "F",
      "SAFFL": "Y",
      "TRTSDT": 19196.0,
      "TRTEDT": 19378.0,
      "ASTDT": 19332.0,
      "ASTDTF": "",
      "ASTDY": 137.0,
      "AENDT": NaN,
      "AENDY": NaN,
      "ADURN": NaN,
      "ADURU": "",
      "AETERM": "APPLICATION SITE PRURITUS",
      "AELLT": "APPLICATION SITE ITCHING",
      "AELLTCD": null,
      "AEDECOD": "APPLICATION SITE PRURITUS",
      "AEPTCD": null,
      "AEHLT": "HLT_0317",
      "AEHLTCD": null,
      "AEHLGT": "HLGT_0338",
      "AEHLGTCD": null,
      "AEBODSYS": "GENERAL DISORDERS AND ADMINISTRATION SITE CONDITIONS",
      "AESOC": "GENERAL DISORDERS AND ADMINISTRATION SITE CONDITIONS",
      "AESOCCD": null,
      "AESEV": "MILD",
      "AESER": "N",
      "AESCAN": "N",
      "AESCONG": "N",
      "AESDISAB": "N",
      "AESDTH": "N",
      "AESHOSP": "N",
      "AESLIFE": "N",
      "AESOD": "N",
      "AEREL": "PROBABLE",
      "AEACN": "",
      "AEOUT": "NOT RECOVERED/NOT RESOLVED",
      "AESEQ": 14.0,
      "TRTEMFL": "Y",
      "AOCCFL": "",
      "AOCCSFL": "",
      "AOCCPFL": "Y",
      "AOCC02FL": "",
      "AOCC03FL": "",
      "AOCC04FL": "",
      "CQ01NAM": "DERMATOLOGIC EVENTS",
      "AOCC01FL": ""
    },
    {
      "STUDYID": "CDISCPILOT01",
      "SITEID": "701",
      "USUBJID": "01-701-1192",
      "TRTA": "Xanomeline Low Dose",
      "TRTAN": 54.0,
      "AGE": 80.0,
      "AGEGR1": "65-80",
      "AGEGR1N": 2.0,
      "RACE": "WHITE",
      "RACEN": 1.0,
      "SEX": "F",
      "SAFFL": "Y",
      "TRTSDT": 19196.0,
      "TRTEDT": 19378.0,
      "ASTDT": 19332.0,
      "ASTDTF": "",
      "ASTDY": 137.0,
      "AENDT": 19343.0,
      "AENDY": 148.0,
      "ADURN": 12.0,
      "ADURU": "DAY",
      "AETERM": "APPLICATION SITE IRRITATION",
      "AELLT": "APPLICATION SITE BURNING",
      "AELLTCD": null,
      "AEDECOD": "APPLICATION SITE IRRITATION",
      "AEPTCD": null,
      "AEHLT": "HLT_0061",
      "AEHLTCD": null,
      "AEHLGT": "HLGT_0346",
      "AEHLGTCD": null,
      "AEBODSYS": "GENERAL DISORDERS AND ADMINISTRATION SITE CONDITIONS",
      "AESOC": "GENERAL DISORDERS AND ADMINISTRATION SITE CONDITIONS",
      "AESOCCD": null,
      "AESEV": "MILD",
      "AESER": "N",
      "AESCAN": "N",
      "AESCONG": "N",
      "AESDISAB": "N",
      "AESDTH": "N",
      "AESHOSP": "N",
      "AESLIFE": "N",
      "AESOD": "N",
      "AEREL": "PROBABLE",
      "AEACN": "",
      "AEOUT": "RECOVERED/RESOLVED",
      "AESEQ": 15.0,
      "TRTEMFL": "Y",
      "AOCCFL": "",
      "AOCCSFL": "",
      "AOCCPFL": "",
      "AOCC02FL": "",
      "AOCC03FL": "",
      "AOCC04FL": "",
      "CQ01NAM": "DERMATOLOGIC EVENTS",
      "AOCC01FL": ""
    },
    {
      "STUDYID": "CDISCPILOT01",
      "SITEID": "701",
      "USUBJID": "01-701-1203",
      "TRTA": "Placebo",
      "TRTAN": 5.397605346934028e-79,
      "AGE": 81.0,
      "AGEGR1": ">80",
      "AGEGR1N": 3.0,
      "RACE": "BLACK OR AFRICAN AMERICAN",
      "RACEN": 2.0,
      "SEX": "F",
      "SAFFL": "Y",
      "TRTSDT": 19391.0,
      "TRTEDT": 19573.0,
      "ASTDT": 19438.0,
      "ASTDTF": "",
      "ASTDY": 48.0,
      "AENDT": 19438.0,
      "AENDY": 48.0,
      "ADURN": 1.0,
      "ADURU": "DAY",
      "AETERM": "EYE LASER SURGERY",
      "AELLT": "EYE LASER SURGERY",
      "AELLTCD": null,
      "AEDECOD": "EYE LASER SURGERY",
      "AEPTCD": null,
      "AEHLT": "HLT_0355",
      "AEHLTCD": null,
      "AEHLGT": "HLGT_0189",
      "AEHLGTCD": null,
      "AEBODSYS": "SURGICAL AND MEDICAL PROCEDURES",
      "AESOC": "SURGICAL AND MEDICAL PROCEDURES",
      "AESOCCD": null,
      "AESEV": "MILD",
      "AESER": "N",
      "AESCAN": "N",
      "AESCONG": "N",
      "AESDISAB": "N",
      "AESDTH": "N",
      "AESHOSP": "N",
      "AESLIFE": "N",
      "AESOD": "N",
      "AEREL": "NONE",
      "AEACN": "",
      "AEOUT": "RECOVERED/RESOLVED",
      "AESEQ": 1.0,
      "TRTEMFL": "Y",
      "AOCCFL": "Y",
      "AOCCSFL": "Y",
      "AOCCPFL": "Y",
      "AOCC02FL": "",
      "AOCC03FL": "",
      "AOCC04FL": "",
      "CQ01NAM": "",
      "AOCC01FL": ""
    },
    {
      "STUDYID": "CDISCPILOT01",
      "SITEID": "701",
      "USUBJID": "01-701-1211",
      "TRTA": "Xanomeline Low Dose",
      "TRTAN": 54.0,
      "AGE": 76.0,
      "AGEGR1": "65-80",
      "AGEGR1N": 2.0,
      "RACE": "WHITE",
      "RACEN": 1.0,
      "SEX": "F",
      "SAFFL": "Y",
      "TRTSDT": 19312.0,
      "TRTEDT": 19370.0,
      "ASTDT": 19313.0,
      "ASTDTF": "",
      "ASTDY": 2.0,
      "AENDT": NaN,
      "AENDY": NaN,
      "ADURN": NaN,
      "ADURU": "",
      "AETERM": "APPLICATION SITE PRURITUS",
      "AELLT": "APPLICATION SITE ITCHING",
      "AELLTCD": null,
      "AEDECOD": "APPLICATION SITE PRURITUS",
      "AEPTCD": null,
      "AEHLT": "HLT_0317",
      "AEHLTCD": null,
      "AEHLGT": "HLGT_0338",
      "AEHLGTCD": null,
      "AEBODSYS": "GENERAL DISORDERS AND ADMINISTRATION SITE CONDITIONS",
      "AESOC": "GENERAL DISORDERS AND ADMINISTRATION SITE CONDITIONS",
      "AESOCCD": null,
      "AESEV": "MILD",
      "AESER": "N",
      "AESCAN": "N",
      "AESCONG": "N",
      "AESDISAB": "N",
      "AESDTH": "N",
      "AESHOSP": "N",
      "AESLIFE": "N",
      "AESOD": "N",
      "AEREL": "POSSIBLE",
      "AEACN": "",
      "AEOUT": "NOT RECOVERED/NOT RESOLVED",
      "AESEQ": 1.0,
      "TRTEMFL": "Y",
      "AOCCFL": "Y",
      "AOCCSFL": "Y",
      "AOCCPFL": "Y",
      "AOCC02FL": "",
      "AOCC03FL": "",
      "AOCC04FL": "",
      "CQ01NAM": "DERMATOLOGIC EVENTS",
      "AOCC01FL": "Y"
    },
    {
      "STUDYID": "CDISCPILOT01",
      "SITEID": "701",
      "USUBJID": "01-701-1211",
      "TRTA": "Xanomeline Low Dose",
      "TRTAN": 54.0,
      "AGE": 76.0,
      "AGEGR1": "65-80",
      "AGEGR1N": 2.0,
      "RACE": "WHITE",
      "RACEN": 1.0,
      "SEX": "F",
      "SAFFL": "Y",
      "TRTSDT": 19312.0,
      "TRTEDT": 19370.0,
      "ASTDT": 19318.0,
      "ASTDTF": "",
      "ASTDY": 7.0,
      "AENDT": 19318.0,
      "AENDY": 7.0,
      "ADURN": 1.0,
      "ADURU": "DAY",
      "AETERM": "JOINT DISLOCATION",
      "AELLT": "SHOULDER DISLOCATION",
      "AELLTCD": null,
      "AEDECOD": "JOINT DISLOCATION",
      "AEPTCD": null,
      "AEHLT": "HLT_0035",
      "AEHLTCD": null,
      "AEHLGT": "HLGT_0227",
      "AEHLGTCD": null,
      "AEBODSYS": "INJURY, POISONING AND PROCEDURAL COMPLICATIONS",
      "AESOC": "INJURY, POISONING AND PROCEDURAL COMPLICATIONS",
      "AESOCCD": null,
      "AESEV": "MODERATE",
      "AESER": "N",
      "AESCAN": "N",
      "AESCONG": "N",
      "AESDISAB": "N",
      "AESDTH": "N",
      "AESHOSP": "N",
      "AESLIFE": "N",
      "AESOD": "N",
      "AEREL": "NONE",
      "AEACN": "",
      "AEOUT": "RECOVERED/RESOLVED",
      "AESEQ": 2.0,
      "TRTEMFL": "Y",
      "AOCCFL": "",
      "AOCCSFL": "Y",
      "AOCCPFL": "Y",
      "AOCC02FL": "",
      "AOCC03FL": "",
      "AOCC04FL": "",
      "CQ01NAM": "",
      "AOCC01FL": ""
    },
    {
      "STUDYID": "CDISCPILOT01",
      "SITEID": "701",
      "USUBJID": "01-701-1211",
      "TRTA": "Xanomeline Low Dose",
      "TRTAN": 54.0,
      "AGE": 76.0,
      "AGEGR1": "65-80",
      "AGEGR1N": 2.0,
      "RACE": "WHITE",
      "RACEN": 1.0,
      "SEX": "F",
      "SAFFL": "Y",
      "TRTSDT": 19312.0,
      "TRTEDT": 19370.0,
      "ASTDT": 19318.0,
      "ASTDTF": "",
      "ASTDY": 7.0,
      "AENDT": NaN,
      "AENDY": NaN,
      "ADURN": NaN,
      "ADURU": "",
      "AETERM": "SHOULDER PAIN",
      "AELLT": "SHOULDER PAIN",
      "AELLTCD": null,
      "AEDECOD": "SHOULDER PAIN",
      "AEPTCD": null,
      "AEHLT": "HLT_0527",
      "AEHLTCD": null,
      "AEHLGT": "HLGT_0288",
      "AEHLGTCD": null,
      "AEBODSYS": "MUSCULOSKELETAL AND CONNECTIVE TISSUE DISORDERS",
      "AESOC": "MUSCULOSKELETAL AND CONNECTIVE TISSUE DISORDERS",
      "AESOCCD": null,
      "AESEV": "MILD",
      "AESER": "N",
      "AESCAN": "N",
      "AESCONG": "N",
      "AESDISAB": "N",
      "AESDTH": "N",
      "AESHOSP": "N",
      "AESLIFE": "N",
      "AESOD": "N",
      "AEREL": "NONE",
      "AEACN": "",
      "AEOUT": "NOT RECOVERED/NOT RESOLVED",
      "AESEQ": 3.0,
      "TRTEMFL": "Y",
      "AOCCFL": "",
      "AOCCSFL": "Y",
      "AOCCPFL": "Y",
      "AOCC02FL": "",
      "AOCC03FL": "",
      "AOCC04FL": "",
      "CQ01NAM": "",
      "AOCC01FL": ""
    },
    {
      "STUDYID": "CDISCPILOT01",
      "SITEID": "701",
      "USUBJID": "01-701-1211",
      "TRTA": "Xanomeline Low Dose",
      "TRTAN": 54.0,
      "AGE": 76.0,
      "AGEGR1": "65-80",
      "AGEGR1N": 2.0,
      "RACE": "WHITE",
      "RACEN": 1.0,
      "SEX": "F",
      "SAFFL": "Y",
      "TRTSDT": 19312.0,
      "TRTEDT": 19370.0,
      "ASTDT": 19319.0,
      "ASTDTF": "",
      "ASTDY": 8.0,
      "AENDT": NaN,
      "AENDY": NaN,
      "ADURN": NaN,
      "ADURU": "",
      "AETERM": "INCONTINENCE",
      "AELLT": "INCONTINENCE",
      "AELLTCD": null,
      "AEDECOD": "INCONTINENCE",
      "AEPTCD": null,
      "AEHLT": "HLT_0560",
      "AEHLTCD": null,
      "AEHLGT": "HLGT_0503",
      "AEHLGTCD": null,
      "AEBODSYS": "RENAL AND URINARY DISORDERS",
      "AESOC": "RENAL AND URINARY DISORDERS",
      "AESOCCD": null,
      "AESEV": "MILD",
      "AESER": "N",
      "AESCAN": "N",
      "AESCONG": "N",
      "AESDISAB": "N",
      "AESDTH": "N",
      "AESHOSP": "N",
      "AESLIFE": "N",
      "AESOD": "N",
      "AEREL": "NONE",
      "AEACN": "",
      "AEOUT": "NOT RECOVERED/NOT RESOLVED",
      "AESEQ": 4.0,
      "TRTEMFL": "Y",
      "AOCCFL": "",
      "AOCCSFL": "Y",
      "AOCCPFL": "Y",
      "AOCC02FL": "",
      "AOCC03FL": "",
      "AOCC04FL": "",
      "CQ01NAM": "",
      "AOCC01FL": ""
    },
    {
      "STUDYID": "CDISCPILOT01",
      "SITEID": "701",
      "USUBJID": "01-701-1211",
      "TRTA": "Xanomeline Low Dose",
      "TRTAN": 54.0,
      "AGE": 76.0,
      "AGEGR1": "65-80",
      "AGEGR1N": 2.0,
      "RACE": "WHITE",
      "RACEN": 1.0,
      "SEX": "F",
      "SAFFL": "Y",
      "TRTSDT": 19312.0,
      "TRTEDT": 19370.0,
      "ASTDT": 19326.0,
      "ASTDTF": "",
      "ASTDY": 15.0,
      "AENDT": NaN,
      "AENDY": NaN,
      "ADURN": NaN,
      "ADURU": "",
      "AETERM": "APPLICATION SITE ERYTHEMA",
      "AELLT": "APPLICATION SITE REDNESS",
      "AELLTCD": null,
      "AEDECOD": "APPLICATION SITE ERYTHEMA",
      "AEPTCD": null,
      "AEHLT": "HLT_0617",
      "AEHLTCD": null,
      "AEHLGT": "HLGT_0152",
      "AEHLGTCD": null,
      "AEBODSYS": "GENERAL DISORDERS AND ADMINISTRATION SITE CONDITIONS",
      "AESOC": "GENERAL DISORDERS AND ADMINISTRATION SITE CONDITIONS",
      "AESOCCD": null,
      "AESEV": "MILD",
      "AESER": "N",
      "AESCAN": "N",
      "AESCONG": "N",
      "AESDISAB": "N",
      "AESDTH": "N",
      "AESHOSP": "N",
      "AESLIFE": "N",
      "AESOD": "N",
      "AEREL": "POSSIBLE",
      "AEACN": "",
      "AEOUT": "NOT RECOVERED/NOT RESOLVED",
      "AESEQ": 5.0,
      "TRTEMFL": "Y",
      "AOCCFL": "",
      "AOCCSFL": "",
      "AOCCPFL": "Y",
      "AOCC02FL": "",
      "AOCC03FL": "",
      "AOCC04FL": "",
      "CQ01NAM": "DERMATOLOGIC EVENTS",
      "AOCC01FL": ""
    },
    {
      "STUDYID": "CDISCPILOT01",
      "SITEID": "701",
      "USUBJID": "01-701-1211",
      "TRTA": "Xanomeline Low Dose",
      "TRTAN": 54.0,
      "AGE": 76.0,
      "AGEGR1": "65-80",
      "AGEGR1N": 2.0,
      "RACE": "WHITE",
      "RACEN": 1.0,
      "SEX": "F",
      "SAFFL": "Y",
      "TRTSDT": 19312.0,
      "TRTEDT": 19370.0,
      "ASTDT": 19336.0,
      "ASTDTF": "",
      "ASTDY": 25.0,
      "AENDT": NaN,
      "AENDY": NaN,
      "ADURN": NaN,
      "ADURU": "",
      "AETERM": "SKIN LACERATION",
      "AELLT": "LACERATION OF FACE",
      "AELLTCD": null,
      "AEDECOD": "SKIN LACERATION",
      "AEPTCD": null,
      "AEHLT": "HLT_0075",
      "AEHLTCD": null,
      "AEHLGT": "HLGT_0118",
      "AEHLGTCD": null,
      "AEBODSYS": "INJURY, POISONING AND PROCEDURAL COMPLICATIONS",
      "AESOC": "INJURY, POISONING AND PROCEDURAL COMPLICATIONS",
      "AESOCCD": null,
      "AESEV": "MILD",
      "AESER": "N",
      "AESCAN": "N",
      "AESCONG": "N",
      "AESDISAB": "N",
      "AESDTH": "N",
      "AESHOSP": "N",
      "AESLIFE": "N",
      "AESOD": "N",
      "AEREL": "NONE",
      "AEACN": "",
      "AEOUT": "NOT RECOVERED/NOT RESOLVED",
      "AESEQ": 6.0,
      "TRTEMFL": "Y",
      "AOCCFL": "",
      "AOCCSFL": "",
      "AOCCPFL": "Y",
      "AOCC02FL": "",
      "AOCC03FL": "",
      "AOCC04FL": "",
      "CQ01NAM": "",
      "AOCC01FL": ""
    },
    {
      "STUDYID": "CDISCPILOT01",
      "SITEID": "701",
      "USUBJID": "01-701-1211",
      "TRTA": "Xanomeline Low Dose",
      "TRTAN": 54.0,
      "AGE": 76.0,
      "AGEGR1": "65-80",
      "AGEGR1N": 2.0,
      "RACE": "WHITE",
      "RACEN": 1.0,
      "SEX": "F",
      "SAFFL": "Y",
      "TRTSDT": 19312.0,
      "TRTEDT": 19370.0,
      "ASTDT": 19369.0,
      "ASTDTF": "",
      "ASTDY": 58.0,
      "AENDT": NaN,
      "AENDY": NaN,
      "ADURN": NaN,
      "ADURU": "",
      "AETERM": "CONFUSIONAL STATE",
      "AELLT": "CONFUSION",
      "AELLTCD": null,
      "AEDECOD": "CONFUSIONAL STATE",
      "AEPTCD": null,
      "AEHLT": "HLT_0642",
      "AEHLTCD": null,
      "AEHLGT": "HLGT_0329",
      "AEHLGTCD": null,
      "AEBODSYS": "PSYCHIATRIC DISORDERS",
      "AESOC": "PSYCHIATRIC DISORDERS",
      "AESOCCD": null,
      "AESEV": "MODERATE",
      "AESER": "N",
      "AESCAN": "N",
      "AESCONG": "N",
      "AESDISAB": "N",
      "AESDTH": "N",
      "AESHOSP": "N",
      "AESLIFE": "N",
      "AESOD": "N",
      "AEREL": "NONE",
      "AEACN": "",
      "AEOUT": "NOT RECOVERED/NOT RESOLVED",
      "AESEQ": 7.0,
      "TRTEMFL": "Y",
      "AOCCFL": "",
      "AOCCSFL": "Y",
      "AOCCPFL": "Y",
      "AOCC02FL": "",
      "AOCC03FL": "",
      "AOCC04FL": "",
      "CQ01NAM": "",
      "AOCC01FL": ""
    },
    {
      "STUDYID": "CDISCPILOT01",
      "SITEID": "701",
      "USUBJID": "01-701-1211",
      "TRTA": "Xanomeline Low Dose",
      "TRTAN": 54.0,
      "AGE": 76.0,
      "AGEGR1": "65-80",
      "AGEGR1N": 2.0,
      "RACE": "WHITE",
      "RACEN": 1.0,
      "SEX": "F",
      "SAFFL": "Y",
      "TRTSDT": 19312.0,
      "TRTEDT": 19370.0,
      "ASTDT": 19369.0,
      "ASTDTF": "",
      "ASTDY": 58.0,
      "AENDT": NaN,
      "AENDY": NaN,
      "ADURN": NaN,
      "ADURU": "",
      "AETERM": "DYSPNOEA",
      "AELLT": "SHORTNESS OF BREATH",
      "AELLTCD": null,
      "AEDECOD": "DYSPNOEA",
      "AEPTCD": null,
      "AEHLT": "HLT_0296",
      "AEHLTCD": null,
      "AEHLGT": "HLGT_0255",
      "AEHLGTCD": null,
      "AEBODSYS": "RESPIRATORY, THORACIC AND MEDIASTINAL DISORDERS",
      "AESOC": "RESPIRATORY, THORACIC AND MEDIASTINAL DISORDERS",
      "AESOCCD": null,
      "AESEV": "MODERATE",
      "AESER": "N",
      "AESCAN": "N",
      "AESCONG": "N",
      "AESDISAB": "N",
      "AESDTH": "N",
      "AESHOSP": "N",
      "AESLIFE": "N",
      "AESOD": "N",
      "AEREL": "NONE",
      "AEACN": "",
      "AEOUT": "NOT RECOVERED/NOT RESOLVED",
      "AESEQ": 8.0,
      "TRTEMFL": "Y",
      "AOCCFL": "",
      "AOCCSFL": "Y",
      "AOCCPFL": "Y",
      "AOCC02FL": "",
      "AOCC03FL": "",
      "AOCC04FL": "",
      "CQ01NAM": "",
      "AOCC01FL": ""
    },
    {
      "STUDYID": "CDISCPILOT01",
      "SITEID": "701",
      "USUBJID": "01-701-1211",
      "TRTA": "Xanomeline Low Dose",
      "TRTAN": 54.0,
      "AGE": 76.0,
      "AGEGR1": "65-80",
      "AGEGR1N": 2.0,
      "RACE": "WHITE",
      "RACEN": 1.0,
      "SEX": "F",
      "SAFFL": "Y",
      "TRTSDT": 19312.0,
      "TRTEDT": 19370.0,
      "ASTDT": 19372.0,
      "ASTDTF": "",
      "ASTDY": 61.0,
      "AENDT": 19372.0,
      "AENDY": 61.0,
      "ADURN": 1.0,
      "ADURU": "DAY",
      "AETERM": "SUDDEN DEATH",
      "AELLT": "SUDDEN DEATH",
      "AELLTCD": null,
      "AEDECOD": "SUDDEN DEATH",
      "AEPTCD": null,
      "AEHLT": "HLT_0142",
      "AEHLTCD": null,
      "AEHLGT": "HLGT_0272",
      "AEHLGTCD": null,
      "AEBODSYS": "GENERAL DISORDERS AND ADMINISTRATION SITE CONDITIONS",
      "AESOC": "GENERAL DISORDERS AND ADMINISTRATION SITE CONDITIONS",
      "AESOCCD": null,
      "AESEV": "SEVERE",
      "AESER": "N",
      "AESCAN": "N",
      "AESCONG": "N",
      "AESDISAB": "N",
      "AESDTH": "Y",
      "AESHOSP": "N",
      "AESLIFE": "Y",
      "AESOD": "N",
      "AEREL": "NONE",
      "AEACN": "",
      "AEOUT": "FATAL",
      "AESEQ": 9.0,
      "TRTEMFL": "Y",
      "AOCCFL": "",
      "AOCCSFL": "",
      "AOCCPFL": "Y",
      "AOCC02FL": "",
      "AOCC03FL": "",
      "AOCC04FL": "",
      "CQ01NAM": "",
      "AOCC01FL": ""
    },
    {
      "STUDYID": "CDISCPILOT01",
      "SITEID": "701",
      "USUBJID": "01-701-1239",
      "TRTA": "Xanomeline High Dose",
      "TRTAN": 81.0,
      "AGE": 56.0,
      "AGEGR1": "<65",
      "AGEGR1N": 1.0,
      "RACE": "WHITE",
      "RACEN": 1.0,
      "SEX": "M",
      "SAFFL": "Y",
      "TRTSDT": 19734.0,
      "TRTEDT": 19914.0,
      "ASTDT": 19735.0,
      "ASTDTF": "",
      "ASTDY": 2.0,
      "AENDT": NaN,
      "AENDY": NaN,
      "ADURN": NaN,
      "ADURU": "",
      "AETERM": "ERYTHEMA",
      "AELLT": "ERYTHEMA",
      "AELLTCD": null,
      "AEDECOD": "ERYTHEMA",
      "AEPTCD": null,
      "AEHLT": "HLT_0284",
      "AEHLTCD": null,
      "AEHLGT": "HLGT_0192",
      "AEHLGTCD": null,
      "AEBODSYS": "SKIN AND SUBCUTANEOUS TISSUE DISORDERS",
      "AESOC": "SKIN AND SUBCUTANEOUS TISSUE DISORDERS",
      "AESOCCD": null,
      "AESEV": "MILD",
      "AESER": "N",
      "AESCAN": "N",
      "AESCONG": "N",
      "AESDISAB": "N",
      "AESDTH": "N",
      "AESHOSP": "N",
      "AESLIFE": "N",
      "AESOD": "N",
      "AEREL": "POSSIBLE",
      "AEACN": "",
      "AEOUT": "NOT RECOVERED/NOT RESOLVED",
      "AESEQ": 1.0,
      "TRTEMFL": "Y",
      "AOCCFL": "Y",
      "AOCCSFL": "Y",
      "AOCCPFL": "Y",
      "AOCC02FL": "",
      "AOCC03FL": "",
      "AOCC04FL": "",
      "CQ01NAM": "DERMATOLOGIC EVENTS",
      "AOCC01FL": "Y"
    },
    {
      "STUDYID": "CDISCPILOT01",
      "SITEID": "701",
      "USUBJID": "01-701-1239",
      "TRTA": "Xanomeline High Dose",
      "TRTAN": 81.0,
      "AGE": 56.0,
      "AGEGR1": "<65",
      "AGEGR1N": 1.0,
      "RACE": "WHITE",
      "RACEN": 1.0,
      "SEX": "M",
      "SAFFL": "Y",
      "TRTSDT": 19734.0,
      "TRTEDT": 19914.0,
      "ASTDT": 19735.0,
      "ASTDTF": "",
      "ASTDY": 2.0,
      "AENDT": NaN,
      "AENDY": NaN,
      "ADURN": NaN,
      "ADURU": "",
      "AETERM": "SKIN ODOUR ABNORMAL",
      "AELLT": "SKIN ODOR ABNORMAL",
      "AELLTCD": null,
      "AEDECOD": "SKIN ODOUR ABNORMAL",
      "AEPTCD": null,
      "AEHLT": "HLT_0510",
      "AEHLTCD": null,
      "AEHLGT": "HLGT_0184",
      "AEHLGTCD": null,
      "AEBODSYS": "SKIN AND SUBCUTANEOUS TISSUE DISORDERS",
      "AESOC": "SKIN AND SUBCUTANEOUS TISSUE DISORDERS",
      "AESOCCD": null,
      "AESEV": "MILD",
      "AESER": "N",
      "AESCAN": "N",
      "AESCONG": "N",
      "AESDISAB": "N",
      "AESDTH": "N",
      "AESHOSP": "N",
      "AESLIFE": "N",
      "AESOD": "N",
      "AEREL": "REMOTE",
      "AEACN": "",
      "AEOUT": "NOT RECOVERED/NOT RESOLVED",
      "AESEQ": 2.0,
      "TRTEMFL": "Y",
      "AOCCFL": "",
      "AOCCSFL": "",
      "AOCCPFL": "Y",
      "AOCC02FL": "",
      "AOCC03FL": "",
      "AOCC04FL": "",
      "CQ01NAM": "DERMATOLOGIC EVENTS",
      "AOCC01FL": ""
    },
    {
      "STUDYID": "CDISCPILOT01",
      "SITEID": "701",
      "USUBJID": "01-701-1239",
      "TRTA": "Xanomeline High Dose",
      "TRTAN": 81.0,
      "AGE": 56.0,
      "AGEGR1": "<65",
      "AGEGR1N": 1.0,
      "RACE": "WHITE",
      "RACEN": 1.0,
      "SEX": "M",
      "SAFFL": "Y",
      "TRTSDT": 19734.0,
      "TRTEDT": 19914.0,
      "ASTDT": 19736.0,
      "ASTDTF": "",
      "ASTDY": 3.0,
      "AENDT": NaN,
      "AENDY": NaN,
      "ADURN": NaN,
      "ADURU": "",
      "AETERM": "PRURITUS",
      "AELLT": "ITCHING",
      "AELLTCD": null,
      "AEDECOD": "PRURITUS",
      "AEPTCD": null,
      "AEHLT": "HLT_0778",
      "AEHLTCD": null,
      "AEHLGT": "HLGT_0695",
      "AEHLGTCD": null,
      "AEBODSYS": "SKIN AND SUBCUTANEOUS TISSUE DISORDERS",
      "AESOC": "SKIN AND SUBCUTANEOUS TISSUE DISORDERS",
      "AESOCCD": null,
      "AESEV": "MILD",
      "AESER": "N",
      "AESCAN": "N",
      "AESCONG": "N",
      "AESDISAB": "N",
      "AESDTH": "N",
      "AESHOSP": "N",
      "AESLIFE": "N",
      "AESOD": "N",
      "AEREL": "POSSIBLE",
      "AEACN": "",
      "AEOUT": "NOT RECOVERED/NOT RESOLVED",
      "AESEQ": 3.0,
      "TRTEMFL": "Y",
      "AOCCFL": "",
      "AOCCSFL": "",
      "AOCCPFL": "Y",
      "AOCC02FL": "",
      "AOCC03FL": "",
      "AOCC04FL": "",
      "CQ01NAM": "DERMATOLOGIC EVENTS",
      "AOCC01FL": ""
    },
    {
      "STUDYID": "CDISCPILOT01",
      "SITEID": "701",
      "USUBJID": "01-701-1239",
      "TRTA": "Xanomeline High Dose",
      "TRTAN": 81.0,
      "AGE": 56.0,
      "AGEGR1": "<65",
      "AGEGR1N": 1.0,
      "RACE": "WHITE",
      "RACEN": 1.0,
      "SEX": "M",
      "SAFFL": "Y",
      "TRTSDT": 19734.0,
      "TRTEDT": 19914.0,
      "ASTDT": 19743.0,
      "ASTDTF": "",
      "ASTDY": 10.0,
      "AENDT": 19762.0,
      "AENDY": 29.0,
      "ADURN": 20.0,
      "ADURU": "DAY",
      "AETERM": "APPLICATION SITE IRRITATION",
      "AELLT": "APPLICATION SITE IRRITATION",
      "AELLTCD": null,
      "AEDECOD": "APPLICATION SITE IRRITATION",
      "AEPTCD": null,
      "AEHLT": "HLT_0061",
      "AEHLTCD": null,
      "AEHLGT": "HLGT_0346",
      "AEHLGTCD": null,
      "AEBODSYS": "GENERAL DISORDERS AND ADMINISTRATION SITE CONDITIONS",
      "AESOC": "GENERAL DISORDERS AND ADMINISTRATION SITE CONDITIONS",
      "AESOCCD": null,
      "AESEV": "MILD",
      "AESER": "N",
      "AESCAN": "N",
      "AESCONG": "N",
      "AESDISAB": "N",
      "AESDTH": "N",
      "AESHOSP": "N",
      "AESLIFE": "N",
      "AESOD": "N",
      "AEREL": "PROBABLE",
      "AEACN": "",
      "AEOUT": "NOT RECOVERED/NOT RESOLVED",
      "AESEQ": 4.0,
      "TRTEMFL": "Y",
      "AOCCFL": "",
      "AOCCSFL": "Y",
      "AOCCPFL": "Y",
      "AOCC02FL": "",
      "AOCC03FL": "",
      "AOCC04FL": "",
      "CQ01NAM": "DERMATOLOGIC EVENTS",
      "AOCC01FL": ""
    },
    {
      "STUDYID": "CDISCPILOT01",
      "SITEID": "701",
      "USUBJID": "01-701-1239",
      "TRTA": "Xanomeline High Dose",
      "TRTAN": 81.0,
      "AGE": 56.0,
      "AGEGR1": "<65",
      "AGEGR1N": 1.0,
      "RACE": "WHITE",
      "RACEN": 1.0,
      "SEX": "M",
      "SAFFL": "Y",
      "TRTSDT": 19734.0,
      "TRTEDT": 19914.0,
      "ASTDT": 19743.0,
      "ASTDTF": "",
      "ASTDY": 10.0,
      "AENDT": 19762.0,
      "AENDY": 29.0,
      "ADURN": 20.0,
      "ADURU": "DAY",
      "AETERM": "APPLICATION SITE IRRITATION",
      "AELLT": "APPLICATION SITE IRRITATION",
      "AELLTCD": null,
      "AEDECOD": "APPLICATION SITE IRRITATION",
      "AEPTCD": null,
      "AEHLT": "HLT_0061",
      "AEHLTCD": null,
      "AEHLGT": "HLGT_0346",
      "AEHLGTCD": null,
      "AEBODSYS": "GENERAL DISORDERS AND ADMINISTRATION SITE CONDITIONS",
      "AESOC": "GENERAL DISORDERS AND ADMINISTRATION SITE CONDITIONS",
      "AESOCCD": null,
      "AESEV": "MILD",
      "AESER": "N",
      "AESCAN": "N",
      "AESCONG": "N",
      "AESDISAB": "N",
      "AESDTH": "N",
      "AESHOSP": "N",
      "AESLIFE": "N",
      "AESOD": "N",
      "AEREL": "PROBABLE",
      "AEACN": "",
      "AEOUT": "RECOVERED/RESOLVED",
      "AESEQ": 5.0,
      "TRTEMFL": "Y",
      "AOCCFL": "",
      "AOCCSFL": "",
      "AOCCPFL": "",
      "AOCC02FL": "",
      "AOCC03FL": "",
      "AOCC04FL": "",
      "CQ01NAM": "DERMATOLOGIC EVENTS",
      "AOCC01FL": ""
    },
    {
      "STUDYID": "CDISCPILOT01",
      "SITEID": "701",
      "USUBJID": "01-701-1239",
      "TRTA": "Xanomeline High Dose",
      "TRTAN": 81.0,
      "AGE": 56.0,
      "AGEGR1": "<65",
      "AGEGR1N": 1.0,
      "RACE": "WHITE",
      "RACEN": 1.0,
      "SEX": "M",
      "SAFFL": "Y",
      "TRTSDT": 19734.0,
      "TRTEDT": 19914.0,
      "ASTDT": 19735.0,
      "ASTDTF": "",
      "ASTDY": 2.0,
      "AENDT": NaN,
      "AENDY": NaN,
      "ADURN": NaN,
      "ADURU": "",
      "AETERM": "ERYTHEMA",
      "AELLT": "ERYTHEMA",
      "AELLTCD": null,
      "AEDECOD": "ERYTHEMA",
      "AEPTCD": null,
      "AEHLT": "HLT_0284",
      "AEHLTCD": null,
      "AEHLGT": "HLGT_0192",
      "AEHLGTCD": null,
      "AEBODSYS": "SKIN AND SUBCUTANEOUS TISSUE DISORDERS",
      "AESOC": "SKIN AND SUBCUTANEOUS TISSUE DISORDERS",
      "AESOCCD": null,
      "AESEV": "MODERATE",
      "AESER": "N",
      "AESCAN": "N",
      "AESCONG": "N",
      "AESDISAB": "N",
      "AESDTH": "N",
      "AESHOSP": "N",
      "AESLIFE": "N",
      "AESOD": "N",
      "AEREL": "POSSIBLE",
      "AEACN": "",
      "AEOUT": "NOT RECOVERED/NOT RESOLVED",
      "AESEQ": 6.0,
      "TRTEMFL": "Y",
      "AOCCFL": "",
      "AOCCSFL": "",
      "AOCCPFL": "",
      "AOCC02FL": "",
      "AOCC03FL": "",
      "AOCC04FL": "",
      "CQ01NAM": "DERMATOLOGIC EVENTS",
      "AOCC01FL": ""
    },
    {
      "STUDYID": "CDISCPILOT01",
      "SITEID": "701",
      "USUBJID": "01-701-1239",
      "TRTA": "Xanomeline High Dose",
      "TRTAN": 81.0,
      "AGE": 56.0,
      "AGEGR1": "<65",
      "AGEGR1N": 1.0,
      "RACE": "WHITE",
      "RACEN": 1.0,
      "SEX": "M",
      "SAFFL": "Y",
      "TRTSDT": 19734.0,
      "TRTEDT": 19914.0,
      "ASTDT": 19774.0,
      "ASTDTF": "",
      "ASTDY": 41.0,
      "AENDT": 19794.0,
      "AENDY": 61.0,
      "ADURN": 21.0,
      "ADURU": "DAY",
      "AETERM": "UPPER RESPIRATORY TRACT INFECTION",
      "AELLT": "UPPER RESPIRATORY INFECTION",
      "AELLTCD": null,
      "AEDECOD": "UPPER RESPIRATORY TRACT INFECTION",
      "AEPTCD": null,
      "AEHLT": "HLT_0520",
      "AEHLTCD": null,
      "AEHLGT": "HLGT_0489",
      "AEHLGTCD": null,
      "AEBODSYS": "INFECTIONS AND INFESTATIONS",
      "AESOC": "INFECTIONS AND INFESTATIONS",
      "AESOCCD": null,
      "AESEV": "MILD",
      "AESER": "N",
      "AESCAN": "N",
      "AESCONG": "N",
      "AESDISAB": "N",
      "AESDTH": "N",
      "AESHOSP": "N",
      "AESLIFE": "N",
      "AESOD": "N",
      "AEREL": "NONE",
      "AEACN": "",
      "AEOUT": "NOT RECOVERED/NOT RESOLVED",
      "AESEQ": 7.0,
      "TRTEMFL": "Y",
      "AOCCFL": "",
      "AOCCSFL": "Y",
      "AOCCPFL": "Y",
      "AOCC02FL": "",
      "AOCC03FL": "",
      "AOCC04FL": "",
      "CQ01NAM": "",
      "AOCC01FL": ""
    },
    {
      "STUDYID": "CDISCPILOT01",
      "SITEID": "701",
      "USUBJID": "01-701-1239",
      "TRTA": "Xanomeline High Dose",
      "TRTAN": 81.0,
      "AGE": 56.0,
      "AGEGR1": "<65",
      "AGEGR1N": 1.0,
      "RACE": "WHITE",
      "RACEN": 1.0,
      "SEX": "M",
      "SAFFL": "Y",
      "TRTSDT": 19734.0,
      "TRTEDT": 19914.0,
      "ASTDT": 19774.0,
      "ASTDTF": "",
      "ASTDY": 41.0,
      "AENDT": 19794.0,
      "AENDY": 61.0,
      "ADURN": 21.0,
      "ADURU": "DAY",
      "AETERM": "UPPER RESPIRATORY TRACT INFECTION",
      "AELLT": "UPPER RESPIRATORY INFECTION",
      "AELLTCD": null,
      "AEDECOD": "UPPER RESPIRATORY TRACT INFECTION",
      "AEPTCD": null,
      "AEHLT": "HLT_0520",
      "AEHLTCD": null,
      "AEHLGT": "HLGT_0489",
      "AEHLGTCD": null,
      "AEBODSYS": "INFECTIONS AND INFESTATIONS",
      "AESOC": "INFECTIONS AND INFESTATIONS",
      "AESOCCD": null,
      "AESEV": "MILD",
      "AESER": "N",
      "AESCAN": "N",
      "AESCONG": "N",
      "AESDISAB": "N",
      "AESDTH": "N",
      "AESHOSP": "N",
      "AESLIFE": "N",
      "AESOD": "N",
      "AEREL": "NONE",
      "AEACN": "",
      "AEOUT": "RECOVERED/RESOLVED",
      "AESEQ": 8.0,
      "TRTEMFL": "Y",
      "AOCCFL": "",
      "AOCCSFL": "",
      "AOCCPFL": "",
      "AOCC02FL": "",
      "AOCC03FL": "",
      "AOCC04FL": "",
      "CQ01NAM": "",
      "AOCC01FL": ""
    },
    {
      "STUDYID": "CDISCPILOT01",
      "SITEID": "701",
      "USUBJID": "01-701-1239",
      "TRTA": "Xanomeline High Dose",
      "TRTAN": 81.0,
      "AGE": 56.0,
      "AGEGR1": "<65",
      "AGEGR1N": 1.0,
      "RACE": "WHITE",
      "RACEN": 1.0,
      "SEX": "M",
      "SAFFL": "Y",
      "TRTSDT": 19734.0,
      "TRTEDT": 19914.0,
      "ASTDT": 19783.0,
      "ASTDTF": "D",
      "ASTDY": 50.0,
      "AENDT": NaN,
      "AENDY": NaN,
      "ADURN": NaN,
      "ADURU": "",
      "AETERM": "FATIGUE",
      "AELLT": "FATIGUE",
      "AELLTCD": null,
      "AEDECOD": "FATIGUE",
      "AEPTCD": null,
      "AEHLT": "HLT_0043",
      "AEHLTCD": null,
      "AEHLGT": "HLGT_0181",
      "AEHLGTCD": null,
      "AEBODSYS": "GENERAL DISORDERS AND ADMINISTRATION SITE CONDITIONS",
      "AESOC": "GENERAL DISORDERS AND ADMINISTRATION SITE CONDITIONS",
      "AESOCCD": null,
      "AESEV": "MILD",
      "AESER": "N",
      "AESCAN": "N",
      "AESCONG": "N",
      "AESDISAB": "N",
      "AESDTH": "N",
      "AESHOSP": "N",
      "AESLIFE": "N",
      "AESOD": "N",
      "AEREL": "REMOTE",
      "AEACN": "",
      "AEOUT": "NOT RECOVERED/NOT RESOLVED",
      "AESEQ": 9.0,
      "TRTEMFL": "Y",
      "AOCCFL": "",
      "AOCCSFL": "",
      "AOCCPFL": "Y",
      "AOCC02FL": "",
      "AOCC03FL": "",
      "AOCC04FL": "",
      "CQ01NAM": "",
      "AOCC01FL": ""
    },
    {
      "STUDYID": "CDISCPILOT01",
      "SITEID": "701",
      "USUBJID": "01-701-1239",
      "TRTA": "Xanomeline High Dose",
      "TRTAN": 81.0,
      "AGE": 56.0,
      "AGEGR1": "<65",
      "AGEGR1N": 1.0,
      "RACE": "WHITE",
      "RACEN": 1.0,
      "SEX": "M",
      "SAFFL": "Y",
      "TRTSDT": 19734.0,
      "TRTEDT": 19914.0,
      "ASTDT": 19814.0,
      "ASTDTF": "D",
      "ASTDY": 81.0,
      "AENDT": NaN,
      "AENDY": NaN,
      "ADURN": NaN,
      "ADURU": "",
      "AETERM": "HORDEOLUM",
      "AELLT": "STYE",
      "AELLTCD": null,
      "AEDECOD": "HORDEOLUM",
      "AEPTCD": null,
      "AEHLT": "HLT_0604",
      "AEHLTCD": null,
      "AEHLGT": "HLGT_0290",
      "AEHLGTCD": null,
      "AEBODSYS": "INFECTIONS AND INFESTATIONS",
      "AESOC": "INFECTIONS AND INFESTATIONS",
      "AESOCCD": null,
      "AESEV": "MILD",
      "AESER": "N",
      "AESCAN": "N",
      "AESCONG": "N",
      "AESDISAB": "N",
      "AESDTH": "N",
      "AESHOSP": "N",
      "AESLIFE": "N",
      "AESOD": "N",
      "AEREL": "NONE",
      "AEACN": "",
      "AEOUT": "NOT RECOVERED/NOT RESOLVED",
      "AESEQ": 10.0,
      "TRTEMFL": "Y",
      "AOCCFL": "",
      "AOCCSFL": "",
      "AOCCPFL": "Y",
      "AOCC02FL": "",
      "AOCC03FL": "",
      "AOCC04FL": "",
      "CQ01NAM": "",
      "AOCC01FL": ""
    },
    {
      "STUDYID": "CDISCPILOT01",
      "SITEID": "701",
      "USUBJID": "01-701-1275",
      "TRTA": "Xanomeline High Dose",
      "TRTAN": 81.0,
      "AGE": 61.0,
      "AGEGR1": "<65",
      "AGEGR1N": 1.0,
      "RACE": "AMERICAN INDIAN OR ALASKA NATIVE",
      "RACEN": 6.0,
      "SEX": "M",
      "SAFFL": "Y",
      "TRTSDT": 19761.0,
      "TRTEDT": 19874.0,
      "ASTDT": 19767.0,
      "ASTDTF": "",
      "ASTDY": 7.0,
      "AENDT": 19877.0,
      "AENDY": 117.0,
      "ADURN": 111.0,
      "ADURU": "DAY",
      "AETERM": "NAUSEA",
      "AELLT": "NAUSEA",
      "AELLTCD": null,
      "AEDECOD": "NAUSEA",
      "AEPTCD": null,
      "AEHLT": "HLT_0742",
      "AEHLTCD": null,
      "AEHLGT": "HLGT_0326",
      "AEHLGTCD": null,
      "AEBODSYS": "GASTROINTESTINAL DISORDERS",
      "AESOC": "GASTROINTESTINAL DISORDERS",
      "AESOCCD": null,
      "AESEV": "MILD",
      "AESER": "N",
      "AESCAN": "N",
      "AESCONG": "N",
      "AESDISAB": "N",
      "AESDTH": "N",
      "AESHOSP": "N",
      "AESLIFE": "N",
      "AESOD": "N",
      "AEREL": "POSSIBLE",
      "AEACN": "",
      "AEOUT": "NOT RECOVERED/NOT RESOLVED",
      "AESEQ": 1.0,
      "TRTEMFL": "Y",
      "AOCCFL": "Y",
      "AOCCSFL": "Y",
      "AOCCPFL": "Y",
      "AOCC02FL": "",
      "AOCC03FL": "",
      "AOCC04FL": "",
      "CQ01NAM": "",
      "AOCC01FL": ""
    },
    {
      "STUDYID": "CDISCPILOT01",
      "SITEID": "701",
      "USUBJID": "01-701-1275",
      "TRTA": "Xanomeline High Dose",
      "TRTAN": 81.0,
      "AGE": 61.0,
      "AGEGR1": "<65",
      "AGEGR1N": 1.0,
      "RACE": "AMERICAN INDIAN OR ALASKA NATIVE",
      "RACEN": 6.0,
      "SEX": "M",
      "SAFFL": "Y",
      "TRTSDT": 19761.0,
      "TRTEDT": 19874.0,
      "ASTDT": 19777.0,
      "ASTDTF": "",
      "ASTDY": 17.0,
      "AENDT": 19777.0,
      "AENDY": 17.0,
      "ADURN": 1.0,
      "ADURU": "DAY",
      "AETERM": "VOMITING",
      "AELLT": "VOMITING",
      "AELLTCD": null,
      "AEDECOD": "VOMITING",
      "AEPTCD": null,
      "AEHLT": "HLT_0016",
      "AEHLTCD": null,
      "AEHLGT": "HLGT_0350",
      "AEHLGTCD": null,
      "AEBODSYS": "GASTROINTESTINAL DISORDERS",
      "AESOC": "GASTROINTESTINAL DISORDERS",
      "AESOCCD": null,
      "AESEV": "MILD",
      "AESER": "N",
      "AESCAN": "N",
      "AESCONG": "N",
      "AESDISAB": "N",
      "AESDTH": "N",
      "AESHOSP": "N",
      "AESLIFE": "N",
      "AESOD": "N",
      "AEREL": "POSSIBLE",
      "AEACN": "",
      "AEOUT": "RECOVERED/RESOLVED",
      "AESEQ": 2.0,
      "TRTEMFL": "Y",
      "AOCCFL": "",
      "AOCCSFL": "",
      "AOCCPFL": "Y",
      "AOCC02FL": "",
      "AOCC03FL": "",
      "AOCC04FL": "",
      "CQ01NAM": "",
      "AOCC01FL": ""
    },
    {
      "STUDYID": "CDISCPILOT01",
      "SITEID": "701",
      "USUBJID": "01-701-1275",
      "TRTA": "Xanomeline High Dose",
      "TRTAN": 81.0,
      "AGE": 61.0,
      "AGEGR1": "<65",
      "AGEGR1N": 1.0,
      "RACE": "AMERICAN INDIAN OR ALASKA NATIVE",
      "RACEN": 6.0,
      "SEX": "M",
      "SAFFL": "Y",
      "TRTSDT": 19761.0,
      "TRTEDT": 19874.0,
      "ASTDT": 19778.0,
      "ASTDTF": "",
      "ASTDY": 18.0,
      "AENDT": 19886.0,
      "AENDY": 126.0,
      "ADURN": 109.0,
      "ADURU": "DAY",
      "AETERM": "ERYTHEMA",
      "AELLT": "ERYTHEMA",
      "AELLTCD": null,
      "AEDECOD": "ERYTHEMA",
      "AEPTCD": null,
      "AEHLT": "HLT_0284",
      "AEHLTCD": null,
      "AEHLGT": "HLGT_0192",
      "AEHLGTCD": null,
      "AEBODSYS": "SKIN AND SUBCUTANEOUS TISSUE DISORDERS",
      "AESOC": "SKIN AND SUBCUTANEOUS TISSUE DISORDERS",
      "AESOCCD": null,
      "AESEV": "MILD",
      "AESER": "N",
      "AESCAN": "N",
      "AESCONG": "N",
      "AESDISAB": "N",
      "AESDTH": "N",
      "AESHOSP": "N",
      "AESLIFE": "N",
      "AESOD": "N",
      "AEREL": "POSSIBLE",
      "AEACN": "",
      "AEOUT": "NOT RECOVERED/NOT RESOLVED",
      "AESEQ": 3.0,
      "TRTEMFL": "Y",
      "AOCCFL": "",
      "AOCCSFL": "Y",
      "AOCCPFL": "Y",
      "AOCC02FL": "",
      "AOCC03FL": "",
      "AOCC04FL": "",
      "CQ01NAM": "DERMATOLOGIC EVENTS",
      "AOCC01FL": "Y"
    },
    {
      "STUDYID": "CDISCPILOT01",
      "SITEID": "701",
      "USUBJID": "01-701-1275",
      "TRTA": "Xanomeline High Dose",
      "TRTAN": 81.0,
      "AGE": 61.0,
      "AGEGR1": "<65",
      "AGEGR1N": 1.0,
      "RACE": "AMERICAN INDIAN OR ALASKA NATIVE",
      "RACEN": 6.0,
      "SEX": "M",
      "SAFFL": "Y",
      "TRTSDT": 19761.0,
      "TRTEDT": 19874.0,
      "ASTDT": 19778.0,
      "ASTDTF": "",
      "ASTDY": 18.0,
      "AENDT": 19877.0,
      "AENDY": 117.0,
      "ADURN": 100.0,
      "ADURU": "DAY",
      "AETERM": "SALIVARY HYPERSECRETION",
      "AELLT": "HYPERSALIVATION",
      "AELLTCD": null,
      "AEDECOD": "SALIVARY HYPERSECRETION",
      "AEPTCD": null,
      "AEHLT": "HLT_0374",
      "AEHLTCD": null,
      "AEHLGT": "HLGT_0488",
      "AEHLGTCD": null,
      "AEBODSYS": "GASTROINTESTINAL DISORDERS",
      "AESOC": "GASTROINTESTINAL DISORDERS",
      "AESOCCD": null,
      "AESEV": "MILD",
      "AESER": "N",
      "AESCAN": "N",
      "AESCONG": "N",
      "AESDISAB": "N",
      "AESDTH": "N",
      "AESHOSP": "N",
      "AESLIFE": "N",
      "AESOD": "N",
      "AEREL": "POSSIBLE",
      "AEACN": "",
      "AEOUT": "NOT RECOVERED/NOT RESOLVED",
      "AESEQ": 4.0,
      "TRTEMFL": "Y",
      "AOCCFL": "",
      "AOCCSFL": "",
      "AOCCPFL": "Y",
      "AOCC02FL": "",
      "AOCC03FL": "",
      "AOCC04FL": "",
      "CQ01NAM": "",
      "AOCC01FL": ""
    },
    {
      "STUDYID": "CDISCPILOT01",
      "SITEID": "701",
      "USUBJID": "01-701-1275",
      "TRTA": "Xanomeline High Dose",
      "TRTAN": 81.0,
      "AGE": 61.0,
      "AGEGR1": "<65",
      "AGEGR1N": 1.0,
      "RACE": "AMERICAN INDIAN OR ALASKA NATIVE",
      "RACEN": 6.0,
      "SEX": "M",
      "SAFFL": "Y",
      "TRTSDT": 19761.0,
      "TRTEDT": 19874.0,
      "ASTDT": 19778.0,
      "ASTDTF": "",
      "ASTDY": 18.0,
      "AENDT": 19877.0,
      "AENDY": 117.0,
      "ADURN": 100.0,
      "ADURU": "DAY",
      "AETERM": "PAROSMIA",
      "AELLT": "STRANGE SMELL SENSATION",
      "AELLTCD": null,
      "AEDECOD": "PAROSMIA",
      "AEPTCD": null,
      "AEHLT": "HLT_0258",
      "AEHLTCD": null,
      "AEHLGT": "HLGT_0471",
      "AEHLGTCD": null,
      "AEBODSYS": "NERVOUS SYSTEM DISORDERS",
      "AESOC": "NERVOUS SYSTEM DISORDERS",
      "AESOCCD": null,
      "AESEV": "MILD",
      "AESER": "N",
      "AESCAN": "N",
      "AESCONG": "N",
      "AESDISAB": "N",
      "AESDTH": "N",
      "AESHOSP": "N",
      "AESLIFE": "N",
      "AESOD": "N",
      "AEREL": "POSSIBLE",
      "AEACN": "",
      "AEOUT": "NOT RECOVERED/NOT RESOLVED",
      "AESEQ": 5.0,
      "TRTEMFL": "Y",
      "AOCCFL": "",
      "AOCCSFL": "Y",
      "AOCCPFL": "Y",
      "AOCC02FL": "",
      "AOCC03FL": "",
      "AOCC04FL": "",
      "CQ01NAM": "",
      "AOCC01FL": ""
    },
    {
      "STUDYID": "CDISCPILOT01",
      "SITEID": "701",
      "USUBJID": "01-701-1275",
      "TRTA": "Xanomeline High Dose",
      "TRTAN": 81.0,
      "AGE": 61.0,
      "AGEGR1": "<65",
      "AGEGR1N": 1.0,
      "RACE": "AMERICAN INDIAN OR ALASKA NATIVE",
      "RACEN": 6.0,
      "SEX": "M",
      "SAFFL": "Y",
      "TRTSDT": 19761.0,
      "TRTEDT": 19874.0,
      "ASTDT": 19778.0,
      "ASTDTF": "",
      "ASTDY": 18.0,
      "AENDT": 19886.0,
      "AENDY": 126.0,
      "ADURN": 109.0,
      "ADURU": "DAY",
      "AETERM": "PRURITUS",
      "AELLT": "ITCHING",
      "AELLTCD": null,
      "AEDECOD": "PRURITUS",
      "AEPTCD": null,
      "AEHLT": "HLT_0778",
      "AEHLTCD": null,
      "AEHLGT": "HLGT_0695",
      "AEHLGTCD": null,
      "AEBODSYS": "SKIN AND SUBCUTANEOUS TISSUE DISORDERS",
      "AESOC": "SKIN AND SUBCUTANEOUS TISSUE DISORDERS",
      "AESOCCD": null,
      "AESEV": "MILD",
      "AESER": "N",
      "AESCAN": "N",
      "AESCONG": "N",
      "AESDISAB": "N",
      "AESDTH": "N",
      "AESHOSP": "N",
      "AESLIFE": "N",
      "AESOD": "N",
      "AEREL": "POSSIBLE",
      "AEACN": "",
      "AEOUT": "NOT RECOVERED/NOT RESOLVED",
      "AESEQ": 6.0,
      "TRTEMFL": "Y",
      "AOCCFL": "",
      "AOCCSFL": "",
      "AOCCPFL": "Y",
      "AOCC02FL": "",
      "AOCC03FL": "",
      "AOCC04FL": "",
      "CQ01NAM": "DERMATOLOGIC EVENTS",
      "AOCC01FL": ""
    },
    {
      "STUDYID": "CDISCPILOT01",
      "SITEID": "701",
      "USUBJID": "01-701-1275",
      "TRTA": "Xanomeline High Dose",
      "TRTAN": 81.0,
      "AGE": 61.0,
      "AGEGR1": "<65",
      "AGEGR1N": 1.0,
      "RACE": "AMERICAN INDIAN OR ALASKA NATIVE",
      "RACEN": 6.0,
      "SEX": "M",
      "SAFFL": "Y",
      "TRTSDT": 19761.0,
      "TRTEDT": 19874.0,
      "ASTDT": 19794.0,
      "ASTDTF": "",
      "ASTDY": 34.0,
      "AENDT": 19809.0,
      "AENDY": 49.0,
      "ADURN": 16.0,
      "ADURU": "DAY",
      "AETERM": "COUGH",
      "AELLT": "COUGH",
      "AELLTCD": null,
      "AEDECOD": "COUGH",
      "AEPTCD": null,
      "AEHLT": "HLT_0701",
      "AEHLTCD": null,
      "AEHLGT": "HLGT_0280",
      "AEHLGTCD": null,
      "AEBODSYS": "RESPIRATORY, THORACIC AND MEDIASTINAL DISORDERS",
      "AESOC": "RESPIRATORY, THORACIC AND MEDIASTINAL DISORDERS",
      "AESOCCD": null,
      "AESEV": "MILD",
      "AESER": "N",
      "AESCAN": "N",
      "AESCONG": "N",
      "AESDISAB": "N",
      "AESDTH": "N",
      "AESHOSP": "N",
      "AESLIFE": "N",
      "AESOD": "N",
      "AEREL": "NONE",
      "AEACN": "",
      "AEOUT": "NOT RECOVERED/NOT RESOLVED",
      "AESEQ": 7.0,
      "TRTEMFL": "Y",
      "AOCCFL": "",
      "AOCCSFL": "Y",
      "AOCCPFL": "Y",
      "AOCC02FL": "",
      "AOCC03FL": "",
      "AOCC04FL": "",
      "CQ01NAM": "",
      "AOCC01FL": ""
    },
    {
      "STUDYID": "CDISCPILOT01",
      "SITEID": "701",
      "USUBJID": "01-701-1275",
      "TRTA": "Xanomeline High Dose",
      "TRTAN": 81.0,
      "AGE": 61.0,
      "AGEGR1": "<65",
      "AGEGR1N": 1.0,
      "RACE": "AMERICAN INDIAN OR ALASKA NATIVE",
      "RACEN": 6.0,
      "SEX": "M",
      "SAFFL": "Y",
      "TRTSDT": 19761.0,
      "TRTEDT": 19874.0,
      "ASTDT": 19794.0,
      "ASTDTF": "",
      "ASTDY": 34.0,
      "AENDT": 19809.0,
      "AENDY": 49.0,
      "ADURN": 16.0,
      "ADURU": "DAY",
      "AETERM": "NASAL CONGESTION",
      "AELLT": "NASAL CONGESTION",
      "AELLTCD": null,
      "AEDECOD": "NASAL CONGESTION",
      "AEPTCD": null,
      "AEHLT": "HLT_0118",
      "AEHLTCD": null,
      "AEHLGT": "HLGT_0549",
      "AEHLGTCD": null,
      "AEBODSYS": "RESPIRATORY, THORACIC AND MEDIASTINAL DISORDERS",
      "AESOC": "RESPIRATORY, THORACIC AND MEDIASTINAL DISORDERS",
      "AESOCCD": null,
      "AESEV": "MILD",
      "AESER": "N",
      "AESCAN": "N",
      "AESCONG": "N",
      "AESDISAB": "N",
      "AESDTH": "N",
      "AESHOSP": "N",
      "AESLIFE": "N",
      "AESOD": "N",
      "AEREL": "NONE",
      "AEACN": "",
      "AEOUT": "NOT RECOVERED/NOT RESOLVED",
      "AESEQ": 8.0,
      "TRTEMFL": "Y",
      "AOCCFL": "",
      "AOCCSFL": "",
      "AOCCPFL": "Y",
      "AOCC02FL": "",
      "AOCC03FL": "",
      "AOCC04FL": "",
      "CQ01NAM": "",
      "AOCC01FL": ""
    },
    {
      "STUDYID": "CDISCPILOT01",
      "SITEID": "701",
      "USUBJID": "01-701-1275",
