{
  "name": "ADCIBC",
  "total_rows": 730,
  "unique_subjects": 236,
  "columns": [
    {
      "name": "STUDYID",
      "type": "string"
    },
    {
      "name": "SITEID",
      "type": "string"
    },
    {
      "name": "SITEGR1",
      "type": "string"
    },
    {
      "name": "USUBJID",
      "type": "string"
    },
    {
      "name": "TRTSDT",
      "type": "number"
    },
    {
      "name": "TRTEDT",
      "type": "number"
    },
    {
      "name": "TRTP",
      "type": "string"
    },
    {
      "name": "TRTPN",
      "type": "number"
    },
    {
      "name": "AGE",
      "type": "number"
    },
    {
      "name": "AGEGR1",
      "type": "string"
    },
    {
      "name": "AGEGR1N",
      "type": "number"
    },
    {
      "name": "RACE",
      "type": "string"
    },
    {
      "name": "RACEN",
      "type": "number"
    },
    {
      "name": "SEX",
      "type": "string"
    },
    {
      "name": "ITTFL",
      "type": "string"
    },
    {
      "name": "EFFFL",
      "type": "string"
    },
    {
      "name": "COMP24FL",
      "type": "string"
    },
    {
      "name": "AVISIT",
      "type": "string"
    },
    {
      "name": "AVISITN",
      "type": "number"
    },
    {
      "name": "VISIT",
      "type": "string"
    },
    {
      "name": "VISITNUM",
      "type": "number"
    },
    {
      "name": "ADY",
      "type": "number"
    },
    {
      "name": "ADT",
      "type": "number"
    },
    {
      "name": "PARAMCD",
      "type": "string"
    },
    {
      "name": "PARAM",
      "type": "string"
    },
    {
      "name": "PARAMN",
      "type": "number"
    },
    {
      "name": "AVAL",
      "type": "number"
    },
    {
      "name": "ANL01FL",
      "type": "string"
    },
    {
      "name": "DTYPE",
      "type": "string"
    },
    {
      "name": "AWRANGE",
      "type": "string"
    },
    {
      "name": "AWTARGET",
      "type": "number"
    },
    {
      "name": "AWTDIFF",
      "type": "number"
    },
    {
      "name": "AWLO",
      "type": "number"
    },
    {
      "name": "AWHI",
      "type": "number"
    },
    {
      "name": "AWU",
      "type": "string"
    },
    {
      "name": "QSSEQ",
      "type": "number"
    }
  ],
  "rows": [
    {
      "STUDYID": "CDISCPILOT01",
      "SITEID": "701",
      "SITEGR1": "701",
      "USUBJID": "01-701-1015",
      "TRTSDT": 19725.0,
      "TRTEDT": 19906.0,
      "TRTP": "Placebo",
      "TRTPN": 5.397605346934028e-79,
      "AGE": 63.0,
      "AGEGR1": "<65",
      "AGEGR1N": 1.0,
      "RACE": "WHITE",
      "RACEN": 1.0,
      "SEX": "F",
      "ITTFL": "Y",
      "EFFFL": "Y",
      "COMP24FL": "Y",
      "AVISIT": "Week 8",
      "AVISITN": 8.0,
      "VISIT": "WEEK 8",
      "VISITNUM": 8.0,
      "ADY": 63.0,
      "ADT": 19787.0,
      "PARAMCD": "CIBICVAL",
      "PARAM": "CIBIC Score",
      "PARAMN": 1.0,
      "AVAL": 4.0,
      "ANL01FL": "Y",
      "DTYPE": "",
      "AWRANGE": "2-84",
      "AWTARGET": 56.0,
      "AWTDIFF": 7.0,
      "AWLO": 2.0,
      "AWHI": 84.0,
      "AWU": "DAYS",
      "QSSEQ": 6001.0
    },
    {
      "STUDYID": "CDISCPILOT01",
      "SITEID": "701",
      "SITEGR1": "701",
      "USUBJID": "01-701-1015",
      "TRTSDT": 19725.0,
      "TRTEDT": 19906.0,
      "TRTP": "Placebo",
      "TRTPN": 5.397605346934028e-79,
      "AGE": 63.0,
      "AGEGR1": "<65",
      "AGEGR1N": 1.0,
      "RACE": "WHITE",
      "RACEN": 1.0,
      "SEX": "F",
      "ITTFL": "Y",
      "EFFFL": "Y",
      "COMP24FL": "Y",
      "AVISIT": "Week 16",
      "AVISITN": 16.0,
      "VISIT": "WEEK 16",
      "VISITNUM": 10.0,
      "ADY": 126.0,
      "ADT": 19850.0,
      "PARAMCD": "CIBICVAL",
      "PARAM": "CIBIC Score",
      "PARAMN": 1.0,
      "AVAL": 4.0,
      "ANL01FL": "Y",
      "DTYPE": "",
      "AWRANGE": "85-140",
      "AWTARGET": 112.0,
      "AWTDIFF": 14.0,
      "AWLO": 85.0,
      "AWHI": 140.0,
      "AWU": "DAYS",
      "QSSEQ": 6002.0
    },
    {
      "STUDYID": "CDISCPILOT01",
      "SITEID": "701",
      "SITEGR1": "701",
      "USUBJID": "01-701-1015",
      "TRTSDT": 19725.0,
      "TRTEDT": 19906.0,
      "TRTP": "Placebo",
      "TRTPN": 5.397605346934028e-79,
      "AGE": 63.0,
      "AGEGR1": "<65",
      "AGEGR1N": 1.0,
      "RACE": "WHITE",
      "RACEN": 1.0,
      "SEX": "F",
      "ITTFL": "Y",
      "EFFFL": "Y",
      "COMP24FL": "Y",
      "AVISIT": "Week 24",
      "AVISITN": 24.0,
      "VISIT": "WEEK 24",
      "VISITNUM": 12.0,
      "ADY": 168.0,
      "ADT": 19892.0,
      "PARAMCD": "CIBICVAL",
      "PARAM": "CIBIC Score",
      "PARAMN": 1.0,
      "AVAL": 4.0,
      "ANL01FL": "Y",
      "DTYPE": "",
      "AWRANGE": ">140",
      "AWTARGET": 168.0,
      "AWTDIFF": 5.397605346934028e-79,
      "AWLO": 141.0,
      "AWHI": 220.0,
      "AWU": "DAYS",
      "QSSEQ": 6003.0
    },
    {
      "STUDYID": "CDISCPILOT01",
      "SITEID": "701",
      "SITEGR1": "701",
      "USUBJID": "01-701-1023",
      "TRTSDT": 19210.0,
      "TRTEDT": 19237.0,
      "TRTP": "Placebo",
      "TRTPN": 5.397605346934028e-79,
      "AGE": 64.0,
      "AGEGR1": "<65",
      "AGEGR1N": 1.0,
      "RACE": "WHITE",
      "RACEN": 1.0,
      "SEX": "M",
      "ITTFL": "Y",
      "EFFFL": "Y",
      "COMP24FL": "N",
      "AVISIT": "Week 8",
      "AVISITN": 8.0,
      "VISIT": "WEEK 4",
      "VISITNUM": 5.0,
      "ADY": 29.0,
      "ADT": 19238.0,
      "PARAMCD": "CIBICVAL",
      "PARAM": "CIBIC Score",
      "PARAMN": 1.0,
      "AVAL": 3.0,
      "ANL01FL": "Y",
      "DTYPE": "",
      "AWRANGE": "2-84",
      "AWTARGET": 56.0,
      "AWTDIFF": 27.0,
      "AWLO": 2.0,
      "AWHI": 84.0,
      "AWU": "DAYS",
      "QSSEQ": 6001.0
    },
    {
      "STUDYID": "CDISCPILOT01",
      "SITEID": "701",
      "SITEGR1": "701",
      "USUBJID": "01-701-1023",
      "TRTSDT": 19210.0,
      "TRTEDT": 19237.0,
      "TRTP": "Placebo",
      "TRTPN": 5.397605346934028e-79,
      "AGE": 64.0,
      "AGEGR1": "<65",
      "AGEGR1N": 1.0,
      "RACE": "WHITE",
      "RACEN": 1.0,
      "SEX": "M",
      "ITTFL": "Y",
      "EFFFL": "Y",
      "COMP24FL": "N",
      "AVISIT": "Week 16",
      "AVISITN": 16.0,
      "VISIT": "WEEK 4",
      "VISITNUM": 5.0,
      "ADY": 29.0,
      "ADT": 19238.0,
      "PARAMCD": "CIBICVAL",
      "PARAM": "CIBIC Score",
      "PARAMN": 1.0,
      "AVAL": 3.0,
      "ANL01FL": "Y",
      "DTYPE": "LOCF",
      "AWRANGE": "85-140",
      "AWTARGET": 112.0,
      "AWTDIFF": 83.0,
      "AWLO": 85.0,
      "AWHI": 140.0,
      "AWU": "DAYS",
      "QSSEQ": 6001.0
    },
    {
      "STUDYID": "CDISCPILOT01",
      "SITEID": "701",
      "SITEGR1": "701",
      "USUBJID": "01-701-1023",
      "TRTSDT": 19210.0,
      "TRTEDT": 19237.0,
      "TRTP": "Placebo",
      "TRTPN": 5.397605346934028e-79,
      "AGE": 64.0,
      "AGEGR1": "<65",
      "AGEGR1N": 1.0,
      "RACE": "WHITE",
      "RACEN": 1.0,
      "SEX": "M",
      "ITTFL": "Y",
      "EFFFL": "Y",
      "COMP24FL": "N",
      "AVISIT": "Week 24",
      "AVISITN": 24.0,
      "VISIT": "RETRIEVAL",
      "VISITNUM": 201.0,
      "ADY": 198.0,
      "ADT": 19407.0,
      "PARAMCD": "CIBICVAL",
      "PARAM": "CIBIC Score",
      "PARAMN": 1.0,
      "AVAL": 5.0,
      "ANL01FL": "Y",
      "DTYPE": "",
      "AWRANGE": ">140",
      "AWTARGET": 168.0,
      "AWTDIFF": 30.0,
      "AWLO": 141.0,
      "AWHI": 220.0,
      "AWU": "DAYS",
      "QSSEQ": 6002.0
    },
    {
      "STUDYID": "CDISCPILOT01",
      "SITEID": "701",
      "SITEGR1": "701",
      "USUBJID": "01-701-1028",
      "TRTSDT": 19558.0,
      "TRTEDT": 19737.0,
      "TRTP": "Xanomeline High Dose",
      "TRTPN": 81.0,
      "AGE": 71.0,
      "AGEGR1": "65-80",
      "AGEGR1N": 2.0,
      "RACE": "WHITE",
      "RACEN": 1.0,
      "SEX": "M",
      "ITTFL": "Y",
      "EFFFL": "Y",
      "COMP24FL": "Y",
      "AVISIT": "Week 8",
      "AVISITN": 8.0,
      "VISIT": "WEEK 8",
      "VISITNUM": 8.0,
      "ADY": 54.0,
      "ADT": 19611.0,
      "PARAMCD": "CIBICVAL",
      "PARAM": "CIBIC Score",
      "PARAMN": 1.0,
      "AVAL": 4.0,
      "ANL01FL": "Y",
      "DTYPE": "",
      "AWRANGE": "2-84",
      "AWTARGET": 56.0,
      "AWTDIFF": 2.0,
      "AWLO": 2.0,
      "AWHI": 84.0,
      "AWU": "DAYS",
      "QSSEQ": 6001.0
    },
    {
      "STUDYID": "CDISCPILOT01",
      "SITEID": "701",
      "SITEGR1": "701",
      "USUBJID": "01-701-1028",
      "TRTSDT": 19558.0,
      "TRTEDT": 19737.0,
      "TRTP": "Xanomeline High Dose",
      "TRTPN": 81.0,
      "AGE": 71.0,
      "AGEGR1": "65-80",
      "AGEGR1N": 2.0,
      "RACE": "WHITE",
      "RACEN": 1.0,
      "SEX": "M",
      "ITTFL": "Y",
      "EFFFL": "Y",
      "COMP24FL": "Y",
      "AVISIT": "Week 16",
      "AVISITN": 16.0,
      "VISIT": "WEEK 16",
      "VISITNUM": 10.0,
      "ADY": 111.0,
      "ADT": 19668.0,
      "PARAMCD": "CIBICVAL",
      "PARAM": "CIBIC Score",
      "PARAMN": 1.0,
      "AVAL": 4.0,
      "ANL01FL": "Y",
      "DTYPE": "",
      "AWRANGE": "85-140",
      "AWTARGET": 112.0,
      "AWTDIFF": 1.0,
      "AWLO": 85.0,
      "AWHI": 140.0,
      "AWU": "DAYS",
      "QSSEQ": 6002.0
    },
    {
      "STUDYID": "CDISCPILOT01",
      "SITEID": "701",
      "SITEGR1": "701",
      "USUBJID": "01-701-1028",
      "TRTSDT": 19558.0,
      "TRTEDT": 19737.0,
      "TRTP": "Xanomeline High Dose",
      "TRTPN": 81.0,
      "AGE": 71.0,
      "AGEGR1": "65-80",
      "AGEGR1N": 2.0,
      "RACE": "WHITE",
      "RACEN": 1.0,
      "SEX": "M",
      "ITTFL": "Y",
      "EFFFL": "Y",
      "COMP24FL": "Y",
      "AVISIT": "Week 24",
      "AVISITN": 24.0,
      "VISIT": "WEEK 24",
      "VISITNUM": 12.0,
      "ADY": 172.0,
      "ADT": 19729.0,
      "PARAMCD": "CIBICVAL",
      "PARAM": "CIBIC Score",
      "PARAMN": 1.0,
      "AVAL": 4.0,
      "ANL01FL": "Y",
      "DTYPE": "",
      "AWRANGE": ">140",
      "AWTARGET": 168.0,
      "AWTDIFF": 4.0,
      "AWLO": 141.0,
      "AWHI": 220.0,
      "AWU": "DAYS",
      "QSSEQ": 6003.0
    },
    {
      "STUDYID": "CDISCPILOT01",
      "SITEID": "701",
      "SITEGR1": "701",
      "USUBJID": "01-701-1033",
      "TRTSDT": 19800.0,
      "TRTEDT": 19813.0,
      "TRTP": "Xanomeline Low Dose",
      "TRTPN": 54.0,
      "AGE": 74.0,
      "AGEGR1": "65-80",
      "AGEGR1N": 2.0,
      "RACE": "WHITE",
      "RACEN": 1.0,
      "SEX": "M",
      "ITTFL": "Y",
      "EFFFL": "Y",
      "COMP24FL": "N",
      "AVISIT": "Week 8",
      "AVISITN": 8.0,
      "VISIT": "WEEK 4",
      "VISITNUM": 5.0,
      "ADY": 28.0,
      "ADT": 19827.0,
      "PARAMCD": "CIBICVAL",
      "PARAM": "CIBIC Score",
      "PARAMN": 1.0,
      "AVAL": 4.0,
      "ANL01FL": "Y",
      "DTYPE": "",
      "AWRANGE": "2-84",
      "AWTARGET": 56.0,
      "AWTDIFF": 28.0,
      "AWLO": 2.0,
      "AWHI": 84.0,
      "AWU": "DAYS",
      "QSSEQ": 6001.0
    },
    {
      "STUDYID": "CDISCPILOT01",
      "SITEID": "701",
      "SITEGR1": "701",
      "USUBJID": "01-701-1033",
      "TRTSDT": 19800.0,
      "TRTEDT": 19813.0,
      "TRTP": "Xanomeline Low Dose",
      "TRTPN": 54.0,
      "AGE": 74.0,
      "AGEGR1": "65-80",
      "AGEGR1N": 2.0,
      "RACE": "WHITE",
      "RACEN": 1.0,
      "SEX": "M",
      "ITTFL": "Y",
      "EFFFL": "Y",
      "COMP24FL": "N",
      "AVISIT": "Week 16",
      "AVISITN": 16.0,
      "VISIT": "WEEK 4",
      "VISITNUM": 5.0,
      "ADY": 28.0,
      "ADT": 19827.0,
      "PARAMCD": "CIBICVAL",
      "PARAM": "CIBIC Score",
      "PARAMN": 1.0,
      "AVAL": 4.0,
      "ANL01FL": "Y",
      "DTYPE": "LOCF",
      "AWRANGE": "85-140",
      "AWTARGET": 112.0,
      "AWTDIFF": 84.0,
      "AWLO": 85.0,
      "AWHI": 140.0,
      "AWU": "DAYS",
      "QSSEQ": 6001.0
    },
    {
      "STUDYID": "CDISCPILOT01",
      "SITEID": "701",
      "SITEGR1": "701",
      "USUBJID": "01-701-1033",
      "TRTSDT": 19800.0,
      "TRTEDT": 19813.0,
      "TRTP": "Xanomeline Low Dose",
      "TRTPN": 54.0,
      "AGE": 74.0,
      "AGEGR1": "65-80",
      "AGEGR1N": 2.0,
      "RACE": "WHITE",
      "RACEN": 1.0,
      "SEX": "M",
      "ITTFL": "Y",
      "EFFFL": "Y",
      "COMP24FL": "N",
      "AVISIT": "Week 24",
      "AVISITN": 24.0,
      "VISIT": "RETRIEVAL",
      "VISITNUM": 201.0,
      "ADY": 182.0,
      "ADT": 19981.0,
      "PARAMCD": "CIBICVAL",
      "PARAM": "CIBIC Score",
      "PARAMN": 1.0,
      "AVAL": 4.0,
      "ANL01FL": "Y",
      "DTYPE": "",
      "AWRANGE": ">140",
      "AWTARGET": 168.0,
      "AWTDIFF": 14.0,
      "AWLO": 141.0,
      "AWHI": 220.0,
      "AWU": "DAYS",
      "QSSEQ": 6002.0
    },
    {
      "STUDYID": "CDISCPILOT01",
      "SITEID": "701",
      "SITEGR1": "701",
      "USUBJID": "01-701-1034",
      "TRTSDT": 19905.0,
      "TRTEDT": 20087.0,
      "TRTP": "Xanomeline High Dose",
      "TRTPN": 81.0,
      "AGE": 77.0,
      "AGEGR1": "65-80",
      "AGEGR1N": 2.0,
      "RACE": "WHITE",
      "RACEN": 1.0,
      "SEX": "F",
      "ITTFL": "Y",
      "EFFFL": "Y",
      "COMP24FL": "Y",
      "AVISIT": "Week 8",
      "AVISITN": 8.0,
      "VISIT": "WEEK 8",
      "VISITNUM": 8.0,
      "ADY": 57.0,
      "ADT": 19961.0,
      "PARAMCD": "CIBICVAL",
      "PARAM": "CIBIC Score",
      "PARAMN": 1.0,
      "AVAL": 4.0,
      "ANL01FL": "Y",
      "DTYPE": "",
      "AWRANGE": "2-84",
      "AWTARGET": 56.0,
      "AWTDIFF": 1.0,
      "AWLO": 2.0,
      "AWHI": 84.0,
      "AWU": "DAYS",
      "QSSEQ": 6001.0
    },
    {
      "STUDYID": "CDISCPILOT01",
      "SITEID": "701",
      "SITEGR1": "701",
      "USUBJID": "01-701-1034",
      "TRTSDT": 19905.0,
      "TRTEDT": 20087.0,
      "TRTP": "Xanomeline High Dose",
      "TRTPN": 81.0,
      "AGE": 77.0,
      "AGEGR1": "65-80",
      "AGEGR1N": 2.0,
      "RACE": "WHITE",
      "RACEN": 1.0,
      "SEX": "F",
      "ITTFL": "Y",
      "EFFFL": "Y",
      "COMP24FL": "Y",
      "AVISIT": "Week 16",
      "AVISITN": 16.0,
      "VISIT": "WEEK 16",
      "VISITNUM": 10.0,
      "ADY": 113.0,
      "ADT": 20017.0,
      "PARAMCD": "CIBICVAL",
      "PARAM": "CIBIC Score",
      "PARAMN": 1.0,
      "AVAL": 3.0,
      "ANL01FL": "Y",
      "DTYPE": "",
      "AWRANGE": "85-140",
      "AWTARGET": 112.0,
      "AWTDIFF": 1.0,
      "AWLO": 85.0,
      "AWHI": 140.0,
      "AWU": "DAYS",
      "QSSEQ": 6002.0
    },
    {
      "STUDYID": "CDISCPILOT01",
      "SITEID": "701",
      "SITEGR1": "701",
      "USUBJID": "01-701-1034",
      "TRTSDT": 19905.0,
      "TRTEDT": 20087.0,
      "TRTP": "Xanomeline High Dose",
      "TRTPN": 81.0,
      "AGE": 77.0,
      "AGEGR1": "65-80",
      "AGEGR1N": 2.0,
      "RACE": "WHITE",
      "RACEN": 1.0,
      "SEX": "F",
      "ITTFL": "Y",
      "EFFFL": "Y",
      "COMP24FL": "Y",
      "AVISIT": "Week 24",
      "AVISITN": 24.0,
      "VISIT": "WEEK 24",
      "VISITNUM": 12.0,
      "ADY": 170.0,
      "ADT": 20074.0,
      "PARAMCD": "CIBICVAL",
      "PARAM": "CIBIC Score",
      "PARAMN": 1.0,
      "AVAL": 4.0,
      "ANL01FL": "Y",
      "DTYPE": "",
      "AWRANGE": ">140",
      "AWTARGET": 168.0,
      "AWTDIFF": 2.0,
      "AWLO": 141.0,
      "AWHI": 220.0,
      "AWU": "DAYS",
      "QSSEQ": 6003.0
    },
    {
      "STUDYID": "CDISCPILOT01",
      "SITEID": "701",
      "SITEGR1": "701",
      "USUBJID": "01-701-1047",
      "TRTSDT": 19401.0,
      "TRTEDT": 19426.0,
      "TRTP": "Placebo",
      "TRTPN": 5.397605346934028e-79,
      "AGE": 85.0,
      "AGEGR1": ">80",
      "AGEGR1N": 3.0,
      "RACE": "WHITE",
      "RACEN": 1.0,
      "SEX": "F",
      "ITTFL": "Y",
      "EFFFL": "Y",
      "COMP24FL": "N",
      "AVISIT": "Week 8",
      "AVISITN": 8.0,
      "VISIT": "AMBUL ECG REMOVAL",
      "VISITNUM": 6.0,
      "ADY": 46.0,
      "ADT": 19446.0,
      "PARAMCD": "CIBICVAL",
      "PARAM": "CIBIC Score",
      "PARAMN": 1.0,
      "AVAL": 4.0,
      "ANL01FL": "Y",
      "DTYPE": "",
      "AWRANGE": "2-84",
      "AWTARGET": 56.0,
      "AWTDIFF": 10.0,
      "AWLO": 2.0,
      "AWHI": 84.0,
      "AWU": "DAYS",
      "QSSEQ": 6001.0
    },
    {
      "STUDYID": "CDISCPILOT01",
      "SITEID": "701",
      "SITEGR1": "701",
      "USUBJID": "01-701-1047",
      "TRTSDT": 19401.0,
      "TRTEDT": 19426.0,
      "TRTP": "Placebo",
      "TRTPN": 5.397605346934028e-79,
      "AGE": 85.0,
      "AGEGR1": ">80",
      "AGEGR1N": 3.0,
      "RACE": "WHITE",
      "RACEN": 1.0,
      "SEX": "F",
      "ITTFL": "Y",
      "EFFFL": "Y",
      "COMP24FL": "N",
      "AVISIT": "Week 16",
      "AVISITN": 16.0,
      "VISIT": "AMBUL ECG REMOVAL",
      "VISITNUM": 6.0,
      "ADY": 46.0,
      "ADT": 19446.0,
      "PARAMCD": "CIBICVAL",
      "PARAM": "CIBIC Score",
      "PARAMN": 1.0,
      "AVAL": 4.0,
      "ANL01FL": "Y",
      "DTYPE": "LOCF",
      "AWRANGE": "85-140",
      "AWTARGET": 112.0,
      "AWTDIFF": 66.0,
      "AWLO": 85.0,
      "AWHI": 140.0,
      "AWU": "DAYS",
      "QSSEQ": 6001.0
    },
    {
      "STUDYID": "CDISCPILOT01",
      "SITEID": "701",
      "SITEGR1": "701",
      "USUBJID": "01-701-1047",
      "TRTSDT": 19401.0,
      "TRTEDT": 19426.0,
      "TRTP": "Placebo",
      "TRTPN": 5.397605346934028e-79,
      "AGE": 85.0,
      "AGEGR1": ">80",
      "AGEGR1N": 3.0,
      "RACE": "WHITE",
      "RACEN": 1.0,
      "SEX": "F",
      "ITTFL": "Y",
      "EFFFL": "Y",
      "COMP24FL": "N",
      "AVISIT": "Week 24",
      "AVISITN": 24.0,
      "VISIT": "RETRIEVAL",
      "VISITNUM": 201.0,
      "ADY": 167.0,
      "ADT": 19567.0,
      "PARAMCD": "CIBICVAL",
      "PARAM": "CIBIC Score",
      "PARAMN": 1.0,
      "AVAL": 5.0,
      "ANL01FL": "Y",
      "DTYPE": "",
      "AWRANGE": ">140",
      "AWTARGET": 168.0,
      "AWTDIFF": 1.0,
      "AWLO": 141.0,
      "AWHI": 220.0,
      "AWU": "DAYS",
      "QSSEQ": 6002.0
    },
    {
      "STUDYID": "CDISCPILOT01",
      "SITEID": "701",
      "SITEGR1": "701",
      "USUBJID": "01-701-1097",
      "TRTSDT": 19724.0,
      "TRTEDT": 19913.0,
      "TRTP": "Xanomeline Low Dose",
      "TRTPN": 54.0,
      "AGE": 68.0,
      "AGEGR1": "65-80",
      "AGEGR1N": 2.0,
      "RACE": "WHITE",
      "RACEN": 1.0,
      "SEX": "M",
      "ITTFL": "Y",
      "EFFFL": "Y",
      "COMP24FL": "Y",
      "AVISIT": "Week 8",
      "AVISITN": 8.0,
      "VISIT": "WEEK 8",
      "VISITNUM": 8.0,
      "ADY": 57.0,
      "ADT": 19780.0,
      "PARAMCD": "CIBICVAL",
      "PARAM": "CIBIC Score",
      "PARAMN": 1.0,
      "AVAL": 3.0,
      "ANL01FL": "Y",
      "DTYPE": "",
      "AWRANGE": "2-84",
      "AWTARGET": 56.0,
      "AWTDIFF": 1.0,
      "AWLO": 2.0,
      "AWHI": 84.0,
      "AWU": "DAYS",
      "QSSEQ": 6001.0
    },
    {
      "STUDYID": "CDISCPILOT01",
      "SITEID": "701",
      "SITEGR1": "701",
      "USUBJID": "01-701-1097",
      "TRTSDT": 19724.0,
      "TRTEDT": 19913.0,
      "TRTP": "Xanomeline Low Dose",
      "TRTPN": 54.0,
      "AGE": 68.0,
      "AGEGR1": "65-80",
      "AGEGR1N": 2.0,
      "RACE": "WHITE",
      "RACEN": 1.0,
      "SEX": "M",
      "ITTFL": "Y",
      "EFFFL": "Y",
      "COMP24FL": "Y",
      "AVISIT": "Week 16",
      "AVISITN": 16.0,
      "VISIT": "WEEK 16",
      "VISITNUM": 10.0,
      "ADY": 113.0,
      "ADT": 19836.0,
      "PARAMCD": "CIBICVAL",
      "PARAM": "CIBIC Score",
      "PARAMN": 1.0,
      "AVAL": 4.0,
      "ANL01FL": "Y",
      "DTYPE": "",
      "AWRANGE": "85-140",
      "AWTARGET": 112.0,
      "AWTDIFF": 1.0,
      "AWLO": 85.0,
      "AWHI": 140.0,
      "AWU": "DAYS",
      "QSSEQ": 6002.0
    },
    {
      "STUDYID": "CDISCPILOT01",
      "SITEID": "701",
      "SITEGR1": "701",
      "USUBJID": "01-701-1097",
      "TRTSDT": 19724.0,
      "TRTEDT": 19913.0,
      "TRTP": "Xanomeline Low Dose",
      "TRTPN": 54.0,
      "AGE": 68.0,
      "AGEGR1": "65-80",
      "AGEGR1N": 2.0,
      "RACE": "WHITE",
      "RACEN": 1.0,
      "SEX": "M",
      "ITTFL": "Y",
      "EFFFL": "Y",
      "COMP24FL": "Y",
      "AVISIT": "Week 24",
      "AVISITN": 24.0,
      "VISIT": "WEEK 24",
      "VISITNUM": 12.0,
      "ADY": 169.0,
      "ADT": 19892.0,
      "PARAMCD": "CIBICVAL",
      "PARAM": "CIBIC Score",
      "PARAMN": 1.0,
      "AVAL": 3.0,
      "ANL01FL": "Y",
      "DTYPE": "",
      "AWRANGE": ">140",
      "AWTARGET": 168.0,
      "AWTDIFF": 1.0,
      "AWLO": 141.0,
      "AWHI": 220.0,
      "AWU": "DAYS",
      "QSSEQ": 6003.0
    },
    {
      "STUDYID": "CDISCPILOT01",
      "SITEID": "701",
      "SITEGR1": "701",
      "USUBJID": "01-701-1111",
      "TRTSDT": 19243.0,
      "TRTEDT": 19252.0,
      "TRTP": "Xanomeline Low Dose",
      "TRTPN": 54.0,
      "AGE": 81.0,
      "AGEGR1": ">80",
      "AGEGR1N": 3.0,
      "RACE": "WHITE",
      "RACEN": 1.0,
      "SEX": "F",
      "ITTFL": "Y",
      "EFFFL": "Y",
      "COMP24FL": "N",
      "AVISIT": "Week 8",
      "AVISITN": 8.0,
      "VISIT": "WEEK 2",
      "VISITNUM": 4.0,
      "ADY": 11.0,
      "ADT": 19253.0,
      "PARAMCD": "CIBICVAL",
      "PARAM": "CIBIC Score",
      "PARAMN": 1.0,
      "AVAL": 4.0,
      "ANL01FL": "Y",
      "DTYPE": "",
      "AWRANGE": "2-84",
      "AWTARGET": 56.0,
      "AWTDIFF": 45.0,
      "AWLO": 2.0,
      "AWHI": 84.0,
      "AWU": "DAYS",
      "QSSEQ": 6001.0
    },
    {
      "STUDYID": "CDISCPILOT01",
      "SITEID": "701",
      "SITEGR1": "701",
      "USUBJID": "01-701-1111",
      "TRTSDT": 19243.0,
      "TRTEDT": 19252.0,
      "TRTP": "Xanomeline Low Dose",
      "TRTPN": 54.0,
      "AGE": 81.0,
      "AGEGR1": ">80",
      "AGEGR1N": 3.0,
      "RACE": "WHITE",
      "RACEN": 1.0,
      "SEX": "F",
      "ITTFL": "Y",
      "EFFFL": "Y",
      "COMP24FL": "N",
      "AVISIT": "Week 16",
      "AVISITN": 16.0,
      "VISIT": "WEEK 2",
      "VISITNUM": 4.0,
      "ADY": 11.0,
      "ADT": 19253.0,
      "PARAMCD": "CIBICVAL",
      "PARAM": "CIBIC Score",
      "PARAMN": 1.0,
      "AVAL": 4.0,
      "ANL01FL": "Y",
      "DTYPE": "LOCF",
      "AWRANGE": "85-140",
      "AWTARGET": 112.0,
      "AWTDIFF": 101.0,
      "AWLO": 85.0,
      "AWHI": 140.0,
      "AWU": "DAYS",
      "QSSEQ": 6001.0
    },
    {
      "STUDYID": "CDISCPILOT01",
      "SITEID": "701",
      "SITEGR1": "701",
      "USUBJID": "01-701-1111",
      "TRTSDT": 19243.0,
      "TRTEDT": 19252.0,
      "TRTP": "Xanomeline Low Dose",
      "TRTPN": 54.0,
      "AGE": 81.0,
      "AGEGR1": ">80",
      "AGEGR1N": 3.0,
      "RACE": "WHITE",
      "RACEN": 1.0,
      "SEX": "F",
      "ITTFL": "Y",
      "EFFFL": "Y",
      "COMP24FL": "N",
      "AVISIT": "Week 24",
      "AVISITN": 24.0,
      "VISIT": "RETRIEVAL",
      "VISITNUM": 201.0,
      "ADY": 169.0,
      "ADT": 19411.0,
      "PARAMCD": "CIBICVAL",
      "PARAM": "CIBIC Score",
      "PARAMN": 1.0,
      "AVAL": 5.0,
      "ANL01FL": "Y",
      "DTYPE": "",
      "AWRANGE": ">140",
      "AWTARGET": 168.0,
      "AWTDIFF": 1.0,
      "AWLO": 141.0,
      "AWHI": 220.0,
      "AWU": "DAYS",
      "QSSEQ": 6002.0
    },
    {
      "STUDYID": "CDISCPILOT01",
      "SITEID": "701",
      "SITEGR1": "701",
      "USUBJID": "01-701-1115",
      "TRTSDT": 19327.0,
      "TRTEDT": 19381.0,
      "TRTP": "Xanomeline Low Dose",
      "TRTPN": 54.0,
      "AGE": 84.0,
      "AGEGR1": ">80",
      "AGEGR1N": 3.0,
      "RACE": "WHITE",
      "RACEN": 1.0,
      "SEX": "M",
      "ITTFL": "Y",
      "EFFFL": "Y",
      "COMP24FL": "N",
      "AVISIT": "Week 8",
      "AVISITN": 8.0,
      "VISIT": "WEEK 8",
      "VISITNUM": 8.0,
      "ADY": 55.0,
      "ADT": 19381.0,
      "PARAMCD": "CIBICVAL",
      "PARAM": "CIBIC Score",
      "PARAMN": 1.0,
      "AVAL": 4.0,
      "ANL01FL": "Y",
      "DTYPE": "",
      "AWRANGE": "2-84",
      "AWTARGET": 56.0,
      "AWTDIFF": 1.0,
      "AWLO": 2.0,
      "AWHI": 84.0,
      "AWU": "DAYS",
      "QSSEQ": 6001.0
    },
    {
      "STUDYID": "CDISCPILOT01",
      "SITEID": "701",
      "SITEGR1": "701",
      "USUBJID": "01-701-1115",
      "TRTSDT": 19327.0,
      "TRTEDT": 19381.0,
      "TRTP": "Xanomeline Low Dose",
      "TRTPN": 54.0,
      "AGE": 84.0,
      "AGEGR1": ">80",
      "AGEGR1N": 3.0,
      "RACE": "WHITE",
      "RACEN": 1.0,
      "SEX": "M",
      "ITTFL": "Y",
      "EFFFL": "Y",
      "COMP24FL": "N",
      "AVISIT": "Week 16",
      "AVISITN": 16.0,
      "VISIT": "WEEK 8",
      "VISITNUM": 8.0,
      "ADY": 55.0,
      "ADT": 19381.0,
      "PARAMCD": "CIBICVAL",
      "PARAM": "CIBIC Score",
      "PARAMN": 1.0,
      "AVAL": 4.0,
      "ANL01FL": "Y",
      "DTYPE": "LOCF",
      "AWRANGE": "85-140",
      "AWTARGET": 112.0,
      "AWTDIFF": 57.0,
      "AWLO": 85.0,
      "AWHI": 140.0,
      "AWU": "DAYS",
      "QSSEQ": 6001.0
    },
    {
      "STUDYID": "CDISCPILOT01",
      "SITEID": "701",
      "SITEGR1": "701",
      "USUBJID": "01-701-1115",
      "TRTSDT": 19327.0,
      "TRTEDT": 19381.0,
      "TRTP": "Xanomeline Low Dose",
      "TRTPN": 54.0,
      "AGE": 84.0,
      "AGEGR1": ">80",
      "AGEGR1N": 3.0,
      "RACE": "WHITE",
      "RACEN": 1.0,
      "SEX": "M",
      "ITTFL": "Y",
      "EFFFL": "Y",
      "COMP24FL": "N",
      "AVISIT": "Week 24",
      "AVISITN": 24.0,
      "VISIT": "RETRIEVAL",
      "VISITNUM": 201.0,
      "ADY": 172.0,
      "ADT": 19498.0,
      "PARAMCD": "CIBICVAL",
      "PARAM": "CIBIC Score",
      "PARAMN": 1.0,
      "AVAL": 5.0,
      "ANL01FL": "Y",
      "DTYPE": "",
      "AWRANGE": ">140",
      "AWTARGET": 168.0,
      "AWTDIFF": 4.0,
      "AWLO": 141.0,
      "AWHI": 220.0,
      "AWU": "DAYS",
      "QSSEQ": 6002.0
    },
    {
      "STUDYID": "CDISCPILOT01",
      "SITEID": "701",
      "SITEGR1": "701",
      "USUBJID": "01-701-1118",
      "TRTSDT": 19794.0,
      "TRTEDT": 19975.0,
      "TRTP": "Placebo",
      "TRTPN": 5.397605346934028e-79,
      "AGE": 52.0,
      "AGEGR1": "<65",
      "AGEGR1N": 1.0,
      "RACE": "WHITE",
      "RACEN": 1.0,
      "SEX": "M",
      "ITTFL": "Y",
      "EFFFL": "Y",
      "COMP24FL": "Y",
      "AVISIT": "Week 8",
      "AVISITN": 8.0,
      "VISIT": "WEEK 8",
      "VISITNUM": 8.0,
      "ADY": 58.0,
      "ADT": 19851.0,
      "PARAMCD": "CIBICVAL",
      "PARAM": "CIBIC Score",
      "PARAMN": 1.0,
      "AVAL": 4.0,
      "ANL01FL": "Y",
      "DTYPE": "",
      "AWRANGE": "2-84",
      "AWTARGET": 56.0,
      "AWTDIFF": 2.0,
      "AWLO": 2.0,
      "AWHI": 84.0,
      "AWU": "DAYS",
      "QSSEQ": 6001.0
    },
    {
      "STUDYID": "CDISCPILOT01",
      "SITEID": "701",
      "SITEGR1": "701",
      "USUBJID": "01-701-1118",
      "TRTSDT": 19794.0,
      "TRTEDT": 19975.0,
      "TRTP": "Placebo",
      "TRTPN": 5.397605346934028e-79,
      "AGE": 52.0,
      "AGEGR1": "<65",
      "AGEGR1N": 1.0,
      "RACE": "WHITE",
      "RACEN": 1.0,
      "SEX": "M",
      "ITTFL": "Y",
      "EFFFL": "Y",
      "COMP24FL": "Y",
      "AVISIT": "Week 16",
      "AVISITN": 16.0,
      "VISIT": "WEEK 16",
      "VISITNUM": 10.0,
      "ADY": 113.0,
      "ADT": 19906.0,
      "PARAMCD": "CIBICVAL",
      "PARAM": "CIBIC Score",
      "PARAMN": 1.0,
      "AVAL": 4.0,
      "ANL01FL": "Y",
      "DTYPE": "",
      "AWRANGE": "85-140",
      "AWTARGET": 112.0,
      "AWTDIFF": 1.0,
      "AWLO": 85.0,
      "AWHI": 140.0,
      "AWU": "DAYS",
      "QSSEQ": 6002.0
    },
    {
      "STUDYID": "CDISCPILOT01",
      "SITEID": "701",
      "SITEGR1": "701",
      "USUBJID": "01-701-1118",
      "TRTSDT": 19794.0,
      "TRTEDT": 19975.0,
      "TRTP": "Placebo",
      "TRTPN": 5.397605346934028e-79,
      "AGE": 52.0,
      "AGEGR1": "<65",
      "AGEGR1N": 1.0,
      "RACE": "WHITE",
      "RACEN": 1.0,
      "SEX": "M",
      "ITTFL": "Y",
      "EFFFL": "Y",
      "COMP24FL": "Y",
      "AVISIT": "Week 24",
      "AVISITN": 24.0,
      "VISIT": "WEEK 24",
      "VISITNUM": 12.0,
      "ADY": 169.0,
      "ADT": 19962.0,
      "PARAMCD": "CIBICVAL",
      "PARAM": "CIBIC Score",
      "PARAMN": 1.0,
      "AVAL": 4.0,
      "ANL01FL": "Y",
      "DTYPE": "",
      "AWRANGE": ">140",
      "AWTARGET": 168.0,
      "AWTDIFF": 1.0,
      "AWLO": 141.0,
      "AWHI": 220.0,
      "AWU": "DAYS",
      "QSSEQ": 6003.0
    },
    {
      "STUDYID": "CDISCPILOT01",
      "SITEID": "701",
      "SITEGR1": "701",
      "USUBJID": "01-701-1130",
      "TRTSDT": 19769.0,
      "TRTEDT": 19951.0,
      "TRTP": "Placebo",
      "TRTPN": 5.397605346934028e-79,
      "AGE": 84.0,
      "AGEGR1": ">80",
      "AGEGR1N": 3.0,
      "RACE": "WHITE",
      "RACEN": 1.0,
      "SEX": "M",
      "ITTFL": "Y",
      "EFFFL": "Y",
      "COMP24FL": "Y",
      "AVISIT": "Week 8",
      "AVISITN": 8.0,
      "VISIT": "WEEK 8",
      "VISITNUM": 8.0,
      "ADY": 57.0,
      "ADT": 19825.0,
      "PARAMCD": "CIBICVAL",
      "PARAM": "CIBIC Score",
      "PARAMN": 1.0,
      "AVAL": 3.0,
      "ANL01FL": "Y",
      "DTYPE": "",
      "AWRANGE": "2-84",
      "AWTARGET": 56.0,
      "AWTDIFF": 1.0,
      "AWLO": 2.0,
      "AWHI": 84.0,
      "AWU": "DAYS",
      "QSSEQ": 6001.0
    },
    {
      "STUDYID": "CDISCPILOT01",
      "SITEID": "701",
      "SITEGR1": "701",
      "USUBJID": "01-701-1130",
      "TRTSDT": 19769.0,
      "TRTEDT": 19951.0,
      "TRTP": "Placebo",
      "TRTPN": 5.397605346934028e-79,
      "AGE": 84.0,
      "AGEGR1": ">80",
      "AGEGR1N": 3.0,
      "RACE": "WHITE",
      "RACEN": 1.0,
      "SEX": "M",
      "ITTFL": "Y",
      "EFFFL": "Y",
      "COMP24FL": "Y",
      "AVISIT": "Week 16",
      "AVISITN": 16.0,
      "VISIT": "WEEK 16",
      "VISITNUM": 10.0,
      "ADY": 113.0,
      "ADT": 19881.0,
      "PARAMCD": "CIBICVAL",
      "PARAM": "CIBIC Score",
      "PARAMN": 1.0,
      "AVAL": 3.0,
      "ANL01FL": "Y",
      "DTYPE": "",
      "AWRANGE": "85-140",
      "AWTARGET": 112.0,
      "AWTDIFF": 1.0,
      "AWLO": 85.0,
      "AWHI": 140.0,
      "AWU": "DAYS",
      "QSSEQ": 6002.0
    },
    {
      "STUDYID": "CDISCPILOT01",
      "SITEID": "701",
      "SITEGR1": "701",
      "USUBJID": "01-701-1130",
      "TRTSDT": 19769.0,
      "TRTEDT": 19951.0,
      "TRTP": "Placebo",
      "TRTPN": 5.397605346934028e-79,
      "AGE": 84.0,
      "AGEGR1": ">80",
      "AGEGR1N": 3.0,
      "RACE": "WHITE",
      "RACEN": 1.0,
      "SEX": "M",
      "ITTFL": "Y",
      "EFFFL": "Y",
      "COMP24FL": "Y",
      "AVISIT": "Week 24",
      "AVISITN": 24.0,
      "VISIT": "WEEK 24",
      "VISITNUM": 12.0,
      "ADY": 169.0,
      "ADT": 19937.0,
      "PARAMCD": "CIBICVAL",
      "PARAM": "CIBIC Score",
      "PARAMN": 1.0,
      "AVAL": 3.0,
      "ANL01FL": "Y",
      "DTYPE": "",
      "AWRANGE": ">140",
      "AWTARGET": 168.0,
      "AWTDIFF": 1.0,
      "AWLO": 141.0,
      "AWHI": 220.0,
      "AWU": "DAYS",
      "QSSEQ": 6003.0
    },
    {
      "STUDYID": "CDISCPILOT01",
      "SITEID": "701",
      "SITEGR1": "701",
      "USUBJID": "01-701-1133",
      "TRTSDT": 19294.0,
      "TRTEDT": 19476.0,
      "TRTP": "Xanomeline High Dose",
      "TRTPN": 81.0,
      "AGE": 81.0,
      "AGEGR1": ">80",
      "AGEGR1N": 3.0,
      "RACE": "WHITE",
      "RACEN": 1.0,
      "SEX": "F",
      "ITTFL": "Y",
      "EFFFL": "Y",
      "COMP24FL": "Y",
      "AVISIT": "Week 8",
      "AVISITN": 8.0,
      "VISIT": "WEEK 8",
      "VISITNUM": 8.0,
      "ADY": 58.0,
      "ADT": 19351.0,
      "PARAMCD": "CIBICVAL",
      "PARAM": "CIBIC Score",
      "PARAMN": 1.0,
      "AVAL": 4.0,
      "ANL01FL": "Y",
      "DTYPE": "",
      "AWRANGE": "2-84",
      "AWTARGET": 56.0,
      "AWTDIFF": 2.0,
      "AWLO": 2.0,
      "AWHI": 84.0,
      "AWU": "DAYS",
      "QSSEQ": 6001.0
    },
    {
      "STUDYID": "CDISCPILOT01",
      "SITEID": "701",
      "SITEGR1": "701",
      "USUBJID": "01-701-1133",
      "TRTSDT": 19294.0,
      "TRTEDT": 19476.0,
      "TRTP": "Xanomeline High Dose",
      "TRTPN": 81.0,
      "AGE": 81.0,
      "AGEGR1": ">80",
      "AGEGR1N": 3.0,
      "RACE": "WHITE",
      "RACEN": 1.0,
      "SEX": "F",
      "ITTFL": "Y",
      "EFFFL": "Y",
      "COMP24FL": "Y",
      "AVISIT": "Week 16",
      "AVISITN": 16.0,
      "VISIT": "WEEK 16",
      "VISITNUM": 10.0,
      "ADY": 114.0,
      "ADT": 19407.0,
      "PARAMCD": "CIBICVAL",
      "PARAM": "CIBIC Score",
      "PARAMN": 1.0,
      "AVAL": 5.0,
      "ANL01FL": "Y",
      "DTYPE": "",
      "AWRANGE": "85-140",
      "AWTARGET": 112.0,
      "AWTDIFF": 2.0,
      "AWLO": 85.0,
      "AWHI": 140.0,
      "AWU": "DAYS",
      "QSSEQ": 6002.0
    },
    {
      "STUDYID": "CDISCPILOT01",
      "SITEID": "701",
      "SITEGR1": "701",
      "USUBJID": "01-701-1133",
      "TRTSDT": 19294.0,
      "TRTEDT": 19476.0,
      "TRTP": "Xanomeline High Dose",
      "TRTPN": 81.0,
      "AGE": 81.0,
      "AGEGR1": ">80",
      "AGEGR1N": 3.0,
      "RACE": "WHITE",
      "RACEN": 1.0,
      "SEX": "F",
      "ITTFL": "Y",
      "EFFFL": "Y",
      "COMP24FL": "Y",
      "AVISIT": "Week 24",
      "AVISITN": 24.0,
      "VISIT": "WEEK 24",
      "VISITNUM": 12.0,
      "ADY": 173.0,
      "ADT": 19466.0,
      "PARAMCD": "CIBICVAL",
      "PARAM": "CIBIC Score",
      "PARAMN": 1.0,
      "AVAL": 5.0,
      "ANL01FL": "Y",
      "DTYPE": "",
      "AWRANGE": ">140",
      "AWTARGET": 168.0,
      "AWTDIFF": 5.0,
      "AWLO": 141.0,
      "AWHI": 220.0,
      "AWU": "DAYS",
      "QSSEQ": 6003.0
    },
    {
      "STUDYID": "CDISCPILOT01",
      "SITEID": "701",
      "SITEGR1": "701",
      "USUBJID": "01-701-1146",
      "TRTSDT": 19498.0,
      "TRTEDT": 19535.0,
      "TRTP": "Xanomeline High Dose",
      "TRTPN": 81.0,
      "AGE": 75.0,
      "AGEGR1": "65-80",
      "AGEGR1N": 2.0,
      "RACE": "WHITE",
      "RACEN": 1.0,
      "SEX": "F",
      "ITTFL": "Y",
      "EFFFL": "Y",
      "COMP24FL": "N",
      "AVISIT": "Week 8",
      "AVISITN": 8.0,
      "VISIT": "WEEK 6",
      "VISITNUM": 7.0,
      "ADY": 42.0,
      "ADT": 19539.0,
      "PARAMCD": "CIBICVAL",
      "PARAM": "CIBIC Score",
      "PARAMN": 1.0,
      "AVAL": 4.0,
      "ANL01FL": "Y",
      "DTYPE": "",
      "AWRANGE": "2-84",
      "AWTARGET": 56.0,
      "AWTDIFF": 14.0,
      "AWLO": 2.0,
      "AWHI": 84.0,
      "AWU": "DAYS",
      "QSSEQ": 6001.0
    },
    {
      "STUDYID": "CDISCPILOT01",
      "SITEID": "701",
      "SITEGR1": "701",
      "USUBJID": "01-701-1146",
      "TRTSDT": 19498.0,
      "TRTEDT": 19535.0,
      "TRTP": "Xanomeline High Dose",
      "TRTPN": 81.0,
      "AGE": 75.0,
      "AGEGR1": "65-80",
      "AGEGR1N": 2.0,
      "RACE": "WHITE",
      "RACEN": 1.0,
      "SEX": "F",
      "ITTFL": "Y",
      "EFFFL": "Y",
      "COMP24FL": "N",
      "AVISIT": "Week 16",
      "AVISITN": 16.0,
      "VISIT": "WEEK 6",
      "VISITNUM": 7.0,
      "ADY": 42.0,
      "ADT": 19539.0,
      "PARAMCD": "CIBICVAL",
      "PARAM": "CIBIC Score",
      "PARAMN": 1.0,
      "AVAL": 4.0,
      "ANL01FL": "Y",
      "DTYPE": "LOCF",
      "AWRANGE": "85-140",
      "AWTARGET": 112.0,
      "AWTDIFF": 70.0,
      "AWLO": 85.0,
      "AWHI": 140.0,
      "AWU": "DAYS",
      "QSSEQ": 6001.0
    },
    {
      "STUDYID": "CDISCPILOT01",
      "SITEID": "701",
      "SITEGR1": "701",
      "USUBJID": "01-701-1146",
      "TRTSDT": 19498.0,
      "TRTEDT": 19535.0,
      "TRTP": "Xanomeline High Dose",
      "TRTPN": 81.0,
      "AGE": 75.0,
      "AGEGR1": "65-80",
      "AGEGR1N": 2.0,
      "RACE": "WHITE",
      "RACEN": 1.0,
      "SEX": "F",
      "ITTFL": "Y",
      "EFFFL": "Y",
      "COMP24FL": "N",
      "AVISIT": "Week 24",
      "AVISITN": 24.0,
      "VISIT": "WEEK 6",
      "VISITNUM": 7.0,
      "ADY": 42.0,
      "ADT": 19539.0,
      "PARAMCD": "CIBICVAL",
      "PARAM": "CIBIC Score",
      "PARAMN": 1.0,
      "AVAL": 4.0,
      "ANL01FL": "Y",
      "DTYPE": "LOCF",
      "AWRANGE": ">140",
      "AWTARGET": 168.0,
      "AWTDIFF": 126.0,
      "AWLO": 141.0,
      "AWHI": 220.0,
      "AWU": "DAYS",
      "QSSEQ": 6001.0
    },
    {
      "STUDYID": "CDISCPILOT01",
      "SITEID": "701",
      "SITEGR1": "701",
      "USUBJID": "01-701-1148",
      "TRTSDT": 19593.0,
      "TRTEDT": 19774.0,
      "TRTP": "Xanomeline High Dose",
      "TRTPN": 81.0,
      "AGE": 57.0,
      "AGEGR1": "<65",
      "AGEGR1N": 1.0,
      "RACE": "WHITE",
      "RACEN": 1.0,
      "SEX": "M",
      "ITTFL": "Y",
      "EFFFL": "Y",
      "COMP24FL": "Y",
      "AVISIT": "Week 8",
      "AVISITN": 8.0,
      "VISIT": "WEEK 8",
      "VISITNUM": 8.0,
      "ADY": 57.0,
      "ADT": 19649.0,
      "PARAMCD": "CIBICVAL",
      "PARAM": "CIBIC Score",
      "PARAMN": 1.0,
      "AVAL": 5.0,
      "ANL01FL": "Y",
      "DTYPE": "",
      "AWRANGE": "2-84",
      "AWTARGET": 56.0,
      "AWTDIFF": 1.0,
      "AWLO": 2.0,
      "AWHI": 84.0,
      "AWU": "DAYS",
      "QSSEQ": 6001.0
    },
    {
      "STUDYID": "CDISCPILOT01",
      "SITEID": "701",
      "SITEGR1": "701",
      "USUBJID": "01-701-1148",
      "TRTSDT": 19593.0,
      "TRTEDT": 19774.0,
      "TRTP": "Xanomeline High Dose",
      "TRTPN": 81.0,
      "AGE": 57.0,
      "AGEGR1": "<65",
      "AGEGR1N": 1.0,
      "RACE": "WHITE",
      "RACEN": 1.0,
      "SEX": "M",
      "ITTFL": "Y",
      "EFFFL": "Y",
      "COMP24FL": "Y",
      "AVISIT": "Week 16",
      "AVISITN": 16.0,
      "VISIT": "WEEK 16",
      "VISITNUM": 10.0,
      "ADY": 113.0,
      "ADT": 19705.0,
      "PARAMCD": "CIBICVAL",
      "PARAM": "CIBIC Score",
      "PARAMN": 1.0,
      "AVAL": 4.0,
      "ANL01FL": "Y",
      "DTYPE": "",
      "AWRANGE": "85-140",
      "AWTARGET": 112.0,
      "AWTDIFF": 1.0,
      "AWLO": 85.0,
      "AWHI": 140.0,
      "AWU": "DAYS",
      "QSSEQ": 6002.0
    },
    {
      "STUDYID": "CDISCPILOT01",
      "SITEID": "701",
      "SITEGR1": "701",
      "USUBJID": "01-701-1148",
      "TRTSDT": 19593.0,
      "TRTEDT": 19774.0,
      "TRTP": "Xanomeline High Dose",
      "TRTPN": 81.0,
      "AGE": 57.0,
      "AGEGR1": "<65",
      "AGEGR1N": 1.0,
      "RACE": "WHITE",
      "RACEN": 1.0,
      "SEX": "M",
      "ITTFL": "Y",
      "EFFFL": "Y",
      "COMP24FL": "Y",
      "AVISIT": "Week 24",
      "AVISITN": 24.0,
      "VISIT": "WEEK 24",
      "VISITNUM": 12.0,
      "ADY": 170.0,
      "ADT": 19762.0,
      "PARAMCD": "CIBICVAL",
      "PARAM": "CIBIC Score",
      "PARAMN": 1.0,
      "AVAL": 5.0,
      "ANL01FL": "Y",
      "DTYPE": "",
      "AWRANGE": ">140",
      "AWTARGET": 168.0,
      "AWTDIFF": 2.0,
      "AWLO": 141.0,
      "AWHI": 220.0,
      "AWU": "DAYS",
      "QSSEQ": 6003.0
    },
    {
      "STUDYID": "CDISCPILOT01",
      "SITEID": "701",
      "SITEGR1": "701",
      "USUBJID": "01-701-1153",
      "TRTSDT": 19624.0,
      "TRTEDT": 19798.0,
      "TRTP": "Placebo",
      "TRTPN": 5.397605346934028e-79,
      "AGE": 79.0,
      "AGEGR1": "65-80",
      "AGEGR1N": 2.0,
      "RACE": "WHITE",
      "RACEN": 1.0,
      "SEX": "F",
      "ITTFL": "Y",
      "EFFFL": "Y",
      "COMP24FL": "Y",
      "AVISIT": "Week 8",
      "AVISITN": 8.0,
      "VISIT": "WEEK 8",
      "VISITNUM": 8.0,
      "ADY": 57.0,
      "ADT": 19680.0,
      "PARAMCD": "CIBICVAL",
      "PARAM": "CIBIC Score",
      "PARAMN": 1.0,
      "AVAL": 4.0,
      "ANL01FL": "Y",
      "DTYPE": "",
      "AWRANGE": "2-84",
      "AWTARGET": 56.0,
      "AWTDIFF": 1.0,
      "AWLO": 2.0,
      "AWHI": 84.0,
      "AWU": "DAYS",
      "QSSEQ": 6001.0
    },
    {
      "STUDYID": "CDISCPILOT01",
      "SITEID": "701",
      "SITEGR1": "701",
      "USUBJID": "01-701-1153",
      "TRTSDT": 19624.0,
      "TRTEDT": 19798.0,
      "TRTP": "Placebo",
      "TRTPN": 5.397605346934028e-79,
      "AGE": 79.0,
      "AGEGR1": "65-80",
      "AGEGR1N": 2.0,
      "RACE": "WHITE",
      "RACEN": 1.0,
      "SEX": "F",
      "ITTFL": "Y",
      "EFFFL": "Y",
      "COMP24FL": "Y",
      "AVISIT": "Week 16",
      "AVISITN": 16.0,
      "VISIT": "WEEK 16",
      "VISITNUM": 10.0,
      "ADY": 108.0,
      "ADT": 19731.0,
      "PARAMCD": "CIBICVAL",
      "PARAM": "CIBIC Score",
      "PARAMN": 1.0,
      "AVAL": 4.0,
      "ANL01FL": "Y",
      "DTYPE": "",
      "AWRANGE": "85-140",
      "AWTARGET": 112.0,
      "AWTDIFF": 4.0,
      "AWLO": 85.0,
      "AWHI": 140.0,
      "AWU": "DAYS",
      "QSSEQ": 6002.0
    },
    {
      "STUDYID": "CDISCPILOT01",
      "SITEID": "701",
      "SITEGR1": "701",
      "USUBJID": "01-701-1153",
      "TRTSDT": 19624.0,
      "TRTEDT": 19798.0,
      "TRTP": "Placebo",
      "TRTPN": 5.397605346934028e-79,
      "AGE": 79.0,
      "AGEGR1": "65-80",
      "AGEGR1N": 2.0,
      "RACE": "WHITE",
      "RACEN": 1.0,
      "SEX": "F",
      "ITTFL": "Y",
      "EFFFL": "Y",
      "COMP24FL": "Y",
      "AVISIT": "Week 24",
      "AVISITN": 24.0,
      "VISIT": "WEEK 24",
      "VISITNUM": 12.0,
      "ADY": 170.0,
      "ADT": 19793.0,
      "PARAMCD": "CIBICVAL",
      "PARAM": "CIBIC Score",
      "PARAMN": 1.0,
      "AVAL": 4.0,
      "ANL01FL": "Y",
      "DTYPE": "",
      "AWRANGE": ">140",
      "AWTARGET": 168.0,
      "AWTDIFF": 2.0,
      "AWLO": 141.0,
      "AWHI": 220.0,
      "AWU": "DAYS",
      "QSSEQ": 6003.0
    },
    {
      "STUDYID": "CDISCPILOT01",
      "SITEID": "701",
      "SITEGR1": "701",
      "USUBJID": "01-701-1180",
      "TRTSDT": 19401.0,
      "TRTEDT": 19435.0,
      "TRTP": "Xanomeline High Dose",
      "TRTPN": 81.0,
      "AGE": 56.0,
      "AGEGR1": "<65",
      "AGEGR1N": 1.0,
      "RACE": "WHITE",
      "RACEN": 1.0,
      "SEX": "M",
      "ITTFL": "Y",
      "EFFFL": "Y",
      "COMP24FL": "N",
      "AVISIT": "Week 8",
      "AVISITN": 8.0,
      "VISIT": "WEEK 6",
      "VISITNUM": 7.0,
      "ADY": 40.0,
      "ADT": 19440.0,
      "PARAMCD": "CIBICVAL",
      "PARAM": "CIBIC Score",
      "PARAMN": 1.0,
      "AVAL": 5.0,
      "ANL01FL": "Y",
      "DTYPE": "",
      "AWRANGE": "2-84",
      "AWTARGET": 56.0,
      "AWTDIFF": 16.0,
      "AWLO": 2.0,
      "AWHI": 84.0,
      "AWU": "DAYS",
      "QSSEQ": 6001.0
    },
    {
      "STUDYID": "CDISCPILOT01",
      "SITEID": "701",
      "SITEGR1": "701",
      "USUBJID": "01-701-1180",
      "TRTSDT": 19401.0,
      "TRTEDT": 19435.0,
      "TRTP": "Xanomeline High Dose",
      "TRTPN": 81.0,
      "AGE": 56.0,
      "AGEGR1": "<65",
      "AGEGR1N": 1.0,
      "RACE": "WHITE",
      "RACEN": 1.0,
      "SEX": "M",
      "ITTFL": "Y",
      "EFFFL": "Y",
      "COMP24FL": "N",
      "AVISIT": "Week 16",
      "AVISITN": 16.0,
      "VISIT": "WEEK 6",
      "VISITNUM": 7.0,
      "ADY": 40.0,
      "ADT": 19440.0,
      "PARAMCD": "CIBICVAL",
      "PARAM": "CIBIC Score",
      "PARAMN": 1.0,
      "AVAL": 5.0,
      "ANL01FL": "Y",
      "DTYPE": "LOCF",
      "AWRANGE": "85-140",
      "AWTARGET": 112.0,
      "AWTDIFF": 72.0,
      "AWLO": 85.0,
      "AWHI": 140.0,
      "AWU": "DAYS",
      "QSSEQ": 6001.0
    },
    {
      "STUDYID": "CDISCPILOT01",
      "SITEID": "701",
      "SITEGR1": "701",
      "USUBJID": "01-701-1180",
      "TRTSDT": 19401.0,
      "TRTEDT": 19435.0,
      "TRTP": "Xanomeline High Dose",
      "TRTPN": 81.0,
      "AGE": 56.0,
      "AGEGR1": "<65",
      "AGEGR1N": 1.0,
      "RACE": "WHITE",
      "RACEN": 1.0,
      "SEX": "M",
      "ITTFL": "Y",
      "EFFFL": "Y",
      "COMP24FL": "N",
      "AVISIT": "Week 24",
      "AVISITN": 24.0,
      "VISIT": "WEEK 6",
      "VISITNUM": 7.0,
      "ADY": 40.0,
      "ADT": 19440.0,
      "PARAMCD": "CIBICVAL",
      "PARAM": "CIBIC Score",
      "PARAMN": 1.0,
      "AVAL": 5.0,
      "ANL01FL": "Y",
      "DTYPE": "LOCF",
      "AWRANGE": ">140",
      "AWTARGET": 168.0,
      "AWTDIFF": 128.0,
      "AWLO": 141.0,
      "AWHI": 220.0,
      "AWU": "DAYS",
      "QSSEQ": 6001.0
    },
    {
      "STUDYID": "CDISCPILOT01",
      "SITEID": "701",
      "SITEGR1": "701",
      "USUBJID": "01-701-1181",
      "TRTSDT": 19697.0,
      "TRTEDT": 19701.0,
      "TRTP": "Xanomeline High Dose",
      "TRTPN": 81.0,
      "AGE": 79.0,
      "AGEGR1": "65-80",
      "AGEGR1N": 2.0,
      "RACE": "WHITE",
      "RACEN": 1.0,
      "SEX": "F",
      "ITTFL": "Y",
      "EFFFL": "Y",
      "COMP24FL": "N",
      "AVISIT": "Week 8",
      "AVISITN": 8.0,
      "VISIT": "WEEK 2",
      "VISITNUM": 4.0,
      "ADY": 8.0,
      "ADT": 19704.0,
      "PARAMCD": "CIBICVAL",
      "PARAM": "CIBIC Score",
      "PARAMN": 1.0,
      "AVAL": 4.0,
      "ANL01FL": "Y",
      "DTYPE": "",
      "AWRANGE": "2-84",
      "AWTARGET": 56.0,
      "AWTDIFF": 48.0,
      "AWLO": 2.0,
      "AWHI": 84.0,
      "AWU": "DAYS",
      "QSSEQ": 6001.0
    },
    {
      "STUDYID": "CDISCPILOT01",
      "SITEID": "701",
      "SITEGR1": "701",
      "USUBJID": "01-701-1181",
      "TRTSDT": 19697.0,
      "TRTEDT": 19701.0,
      "TRTP": "Xanomeline High Dose",
      "TRTPN": 81.0,
      "AGE": 79.0,
      "AGEGR1": "65-80",
      "AGEGR1N": 2.0,
      "RACE": "WHITE",
      "RACEN": 1.0,
      "SEX": "F",
      "ITTFL": "Y",
      "EFFFL": "Y",
      "COMP24FL": "N",
      "AVISIT": "Week 16",
      "AVISITN": 16.0,
      "VISIT": "WEEK 2",
      "VISITNUM": 4.0,
      "ADY": 8.0,
      "ADT": 19704.0,
      "PARAMCD": "CIBICVAL",
      "PARAM": "CIBIC Score",
      "PARAMN": 1.0,
      "AVAL": 4.0,
      "ANL01FL": "Y",
      "DTYPE": "LOCF",
      "AWRANGE": "85-140",
      "AWTARGET": 112.0,
      "AWTDIFF": 104.0,
      "AWLO": 85.0,
      "AWHI": 140.0,
      "AWU": "DAYS",
      "QSSEQ": 6001.0
    },
    {
      "STUDYID": "CDISCPILOT01",
      "SITEID": "701",
      "SITEGR1": "701",
      "USUBJID": "01-701-1181",
      "TRTSDT": 19697.0,
      "TRTEDT": 19701.0,
      "TRTP": "Xanomeline High Dose",
      "TRTPN": 81.0,
      "AGE": 79.0,
      "AGEGR1": "65-80",
      "AGEGR1N": 2.0,
      "RACE": "WHITE",
      "RACEN": 1.0,
      "SEX": "F",
      "ITTFL": "Y",
      "EFFFL": "Y",
      "COMP24FL": "N",
      "AVISIT": "Week 24",
      "AVISITN": 24.0,
      "VISIT": "RETRIEVAL",
      "VISITNUM": 201.0,
      "ADY": 170.0,
      "ADT": 19866.0,
      "PARAMCD": "CIBICVAL",
      "PARAM": "CIBIC Score",
      "PARAMN": 1.0,
      "AVAL": 5.0,
      "ANL01FL": "Y",
      "DTYPE": "",
      "AWRANGE": ">140",
      "AWTARGET": 168.0,
      "AWTDIFF": 2.0,
      "AWLO": 141.0,
      "AWHI": 220.0,
      "AWU": "DAYS",
      "QSSEQ": 6002.0
    },
    {
      "STUDYID": "CDISCPILOT01",
      "SITEID": "701",
      "SITEGR1": "701",
      "USUBJID": "01-701-1188",
      "TRTSDT": 19404.0,
      "TRTEDT": 19441.0,
      "TRTP": "Xanomeline Low Dose",
      "TRTPN": 54.0,
      "AGE": 71.0,
      "AGEGR1": "65-80",
      "AGEGR1N": 2.0,
      "RACE": "WHITE",
      "RACEN": 1.0,
      "SEX": "M",
      "ITTFL": "Y",
      "EFFFL": "Y",
      "COMP24FL": "N",
      "AVISIT": "Week 8",
      "AVISITN": 8.0,
      "VISIT": "WEEK 6",
      "VISITNUM": 7.0,
      "ADY": 39.0,
      "ADT": 19442.0,
      "PARAMCD": "CIBICVAL",
      "PARAM": "CIBIC Score",
      "PARAMN": 1.0,
      "AVAL": 4.0,
      "ANL01FL": "Y",
      "DTYPE": "",
      "AWRANGE": "2-84",
      "AWTARGET": 56.0,
      "AWTDIFF": 17.0,
      "AWLO": 2.0,
      "AWHI": 84.0,
      "AWU": "DAYS",
      "QSSEQ": 6001.0
    },
    {
      "STUDYID": "CDISCPILOT01",
      "SITEID": "701",
      "SITEGR1": "701",
      "USUBJID": "01-701-1188",
      "TRTSDT": 19404.0,
      "TRTEDT": 19441.0,
      "TRTP": "Xanomeline Low Dose",
      "TRTPN": 54.0,
      "AGE": 71.0,
      "AGEGR1": "65-80",
      "AGEGR1N": 2.0,
      "RACE": "WHITE",
      "RACEN": 1.0,
      "SEX": "M",
      "ITTFL": "Y",
      "EFFFL": "Y",
      "COMP24FL": "N",
      "AVISIT": "Week 16",
      "AVISITN": 16.0,
      "VISIT": "WEEK 6",
      "VISITNUM": 7.0,
      "ADY": 39.0,
      "ADT": 19442.0,
      "PARAMCD": "CIBICVAL",
      "PARAM": "CIBIC Score",
      "PARAMN": 1.0,
      "AVAL": 4.0,
      "ANL01FL": "Y",
      "DTYPE": "LOCF",
      "AWRANGE": "85-140",
      "AWTARGET": 112.0,
      "AWTDIFF": 73.0,
      "AWLO": 85.0,
      "AWHI": 140.0,
      "AWU": "DAYS",
      "QSSEQ": 6001.0
    },
    {
      "STUDYID": "CDISCPILOT01",
      "SITEID": "701",
      "SITEGR1": "701",
      "USUBJID": "01-701-1188",
      "TRTSDT": 19404.0,
      "TRTEDT": 19441.0,
      "TRTP": "Xanomeline Low Dose",
      "TRTPN": 54.0,
      "AGE": 71.0,
      "AGEGR1": "65-80",
      "AGEGR1N": 2.0,
      "RACE": "WHITE",
      "RACEN": 1.0,
      "SEX": "M",
      "ITTFL": "Y",
      "EFFFL": "Y",
      "COMP24FL": "N",
      "AVISIT": "Week 24",
      "AVISITN": 24.0,
      "VISIT": "RETRIEVAL",
      "VISITNUM": 201.0,
      "ADY": 171.0,
      "ADT": 19574.0,
      "PARAMCD": "CIBICVAL",
      "PARAM": "CIBIC Score",
      "PARAMN": 1.0,
      "AVAL": 4.0,
      "ANL01FL": "Y",
      "DTYPE": "",
      "AWRANGE": ">140",
      "AWTARGET": 168.0,
      "AWTDIFF": 3.0,
      "AWLO": 141.0,
      "AWHI": 220.0,
      "AWU": "DAYS",
      "QSSEQ": 6002.0
    },
    {
      "STUDYID": "CDISCPILOT01",
      "SITEID": "701",
      "SITEGR1": "701",
      "USUBJID": "01-701-1192",
      "TRTSDT": 19196.0,
      "TRTEDT": 19378.0,
      "TRTP": "Xanomeline Low Dose",
      "TRTPN": 54.0,
      "AGE": 80.0,
      "AGEGR1": "65-80",
      "AGEGR1N": 2.0,
      "RACE": "WHITE",
      "RACEN": 1.0,
      "SEX": "F",
      "ITTFL": "Y",
      "EFFFL": "Y",
      "COMP24FL": "Y",
      "AVISIT": "Week 8",
      "AVISITN": 8.0,
      "VISIT": "WEEK 8",
      "VISITNUM": 8.0,
      "ADY": 64.0,
      "ADT": 19259.0,
      "PARAMCD": "CIBICVAL",
      "PARAM": "CIBIC Score",
      "PARAMN": 1.0,
      "AVAL": 5.0,
      "ANL01FL": "Y",
      "DTYPE": "",
      "AWRANGE": "2-84",
      "AWTARGET": 56.0,
      "AWTDIFF": 8.0,
      "AWLO": 2.0,
      "AWHI": 84.0,
      "AWU": "DAYS",
      "QSSEQ": 6001.0
    },
    {
      "STUDYID": "CDISCPILOT01",
      "SITEID": "701",
      "SITEGR1": "701",
      "USUBJID": "01-701-1192",
      "TRTSDT": 19196.0,
      "TRTEDT": 19378.0,
      "TRTP": "Xanomeline Low Dose",
      "TRTPN": 54.0,
      "AGE": 80.0,
      "AGEGR1": "65-80",
      "AGEGR1N": 2.0,
      "RACE": "WHITE",
      "RACEN": 1.0,
      "SEX": "F",
      "ITTFL": "Y",
      "EFFFL": "Y",
      "COMP24FL": "Y",
      "AVISIT": "Week 16",
      "AVISITN": 16.0,
      "VISIT": "WEEK 16",
      "VISITNUM": 10.0,
      "ADY": 117.0,
      "ADT": 19312.0,
      "PARAMCD": "CIBICVAL",
      "PARAM": "CIBIC Score",
      "PARAMN": 1.0,
      "AVAL": 4.0,
      "ANL01FL": "Y",
      "DTYPE": "",
      "AWRANGE": "85-140",
      "AWTARGET": 112.0,
      "AWTDIFF": 5.0,
      "AWLO": 85.0,
      "AWHI": 140.0,
      "AWU": "DAYS",
      "QSSEQ": 6002.0
    },
    {
      "STUDYID": "CDISCPILOT01",
      "SITEID": "701",
      "SITEGR1": "701",
      "USUBJID": "01-701-1192",
      "TRTSDT": 19196.0,
      "TRTEDT": 19378.0,
      "TRTP": "Xanomeline Low Dose",
      "TRTPN": 54.0,
      "AGE": 80.0,
      "AGEGR1": "65-80",
      "AGEGR1N": 2.0,
      "RACE": "WHITE",
      "RACEN": 1.0,
      "SEX": "F",
      "ITTFL": "Y",
      "EFFFL": "Y",
      "COMP24FL": "Y",
      "AVISIT": "Week 24",
      "AVISITN": 24.0,
      "VISIT": "WEEK 24",
      "VISITNUM": 12.0,
      "ADY": 174.0,
      "ADT": 19369.0,
      "PARAMCD": "CIBICVAL",
      "PARAM": "CIBIC Score",
      "PARAMN": 1.0,
      "AVAL": 4.0,
      "ANL01FL": "Y",
      "DTYPE": "",
      "AWRANGE": ">140",
      "AWTARGET": 168.0,
      "AWTDIFF": 6.0,
      "AWLO": 141.0,
      "AWHI": 220.0,
      "AWU": "DAYS",
      "QSSEQ": 6003.0
    },
    {
      "STUDYID": "CDISCPILOT01",
      "SITEID": "701",
      "SITEGR1": "701",
      "USUBJID": "01-701-1203",
      "TRTSDT": 19391.0,
      "TRTEDT": 19573.0,
      "TRTP": "Placebo",
      "TRTPN": 5.397605346934028e-79,
      "AGE": 81.0,
      "AGEGR1": ">80",
      "AGEGR1N": 3.0,
      "RACE": "BLACK OR AFRICAN AMERICAN",
      "RACEN": 2.0,
      "SEX": "F",
      "ITTFL": "Y",
      "EFFFL": "Y",
      "COMP24FL": "Y",
      "AVISIT": "Week 8",
      "AVISITN": 8.0,
      "VISIT": "WEEK 8",
      "VISITNUM": 8.0,
      "ADY": 57.0,
      "ADT": 19447.0,
      "PARAMCD": "CIBICVAL",
      "PARAM": "CIBIC Score",
      "PARAMN": 1.0,
      "AVAL": 4.0,
      "ANL01FL": "Y",
      "DTYPE": "",
      "AWRANGE": "2-84",
      "AWTARGET": 56.0,
      "AWTDIFF": 1.0,
      "AWLO": 2.0,
      "AWHI": 84.0,
      "AWU": "DAYS",
      "QSSEQ": 6001.0
    },
    {
      "STUDYID": "CDISCPILOT01",
      "SITEID": "701",
      "SITEGR1": "701",
      "USUBJID": "01-701-1203",
      "TRTSDT": 19391.0,
      "TRTEDT": 19573.0,
      "TRTP": "Placebo",
      "TRTPN": 5.397605346934028e-79,
      "AGE": 81.0,
      "AGEGR1": ">80",
      "AGEGR1N": 3.0,
      "RACE": "BLACK OR AFRICAN AMERICAN",
      "RACEN": 2.0,
      "SEX": "F",
      "ITTFL": "Y",
      "EFFFL": "Y",
      "COMP24FL": "Y",
      "AVISIT": "Week 16",
      "AVISITN": 16.0,
      "VISIT": "WEEK 16",
      "VISITNUM": 10.0,
      "ADY": 113.0,
      "ADT": 19503.0,
      "PARAMCD": "CIBICVAL",
      "PARAM": "CIBIC Score",
      "PARAMN": 1.0,
      "AVAL": 4.0,
      "ANL01FL": "Y",
      "DTYPE": "",
      "AWRANGE": "85-140",
      "AWTARGET": 112.0,
      "AWTDIFF": 1.0,
      "AWLO": 85.0,
      "AWHI": 140.0,
      "AWU": "DAYS",
      "QSSEQ": 6002.0
    },
    {
      "STUDYID": "CDISCPILOT01",
      "SITEID": "701",
      "SITEGR1": "701",
      "USUBJID": "01-701-1203",
      "TRTSDT": 19391.0,
      "TRTEDT": 19573.0,
      "TRTP": "Placebo",
      "TRTPN": 5.397605346934028e-79,
      "AGE": 81.0,
      "AGEGR1": ">80",
      "AGEGR1N": 3.0,
      "RACE": "BLACK OR AFRICAN AMERICAN",
      "RACEN": 2.0,
      "SEX": "F",
      "ITTFL": "Y",
      "EFFFL": "Y",
      "COMP24FL": "Y",
      "AVISIT": "Week 24",
      "AVISITN": 24.0,
      "VISIT": "WEEK 24",
      "VISITNUM": 12.0,
      "ADY": 171.0,
      "ADT": 19561.0,
      "PARAMCD": "CIBICVAL",
      "PARAM": "CIBIC Score",
      "PARAMN": 1.0,
      "AVAL": 4.0,
      "ANL01FL": "Y",
      "DTYPE": "",
      "AWRANGE": ">140",
      "AWTARGET": 168.0,
      "AWTDIFF": 3.0,
      "AWLO": 141.0,
      "AWHI": 220.0,
      "AWU": "DAYS",
      "QSSEQ": 6003.0
    },
    {
      "STUDYID": "CDISCPILOT01",
      "SITEID": "701",
      "SITEGR1": "701",
      "USUBJID": "01-701-1211",
      "TRTSDT": 19312.0,
      "TRTEDT": 19370.0,
      "TRTP": "Xanomeline Low Dose",
      "TRTPN": 54.0,
      "AGE": 76.0,
      "AGEGR1": "65-80",
      "AGEGR1N": 2.0,
      "RACE": "WHITE",
      "RACEN": 1.0,
      "SEX": "F",
      "ITTFL": "Y",
      "EFFFL": "Y",
      "COMP24FL": "N",
      "AVISIT": "Week 8",
      "AVISITN": 8.0,
      "VISIT": "WEEK 8",
      "VISITNUM": 8.0,
      "ADY": 55.0,
      "ADT": 19366.0,
      "PARAMCD": "CIBICVAL",
      "PARAM": "CIBIC Score",
      "PARAMN": 1.0,
      "AVAL": 5.0,
      "ANL01FL": "Y",
      "DTYPE": "",
      "AWRANGE": "2-84",
      "AWTARGET": 56.0,
      "AWTDIFF": 1.0,
      "AWLO": 2.0,
      "AWHI": 84.0,
      "AWU": "DAYS",
      "QSSEQ": 6001.0
    },
    {
      "STUDYID": "CDISCPILOT01",
      "SITEID": "701",
      "SITEGR1": "701",
      "USUBJID": "01-701-1211",
      "TRTSDT": 19312.0,
      "TRTEDT": 19370.0,
      "TRTP": "Xanomeline Low Dose",
      "TRTPN": 54.0,
      "AGE": 76.0,
      "AGEGR1": "65-80",
      "AGEGR1N": 2.0,
      "RACE": "WHITE",
      "RACEN": 1.0,
      "SEX": "F",
      "ITTFL": "Y",
      "EFFFL": "Y",
      "COMP24FL": "N",
      "AVISIT": "Week 16",
      "AVISITN": 16.0,
      "VISIT": "WEEK 8",
      "VISITNUM": 8.0,
      "ADY": 55.0,
      "ADT": 19366.0,
      "PARAMCD": "CIBICVAL",
      "PARAM": "CIBIC Score",
      "PARAMN": 1.0,
      "AVAL": 5.0,
      "ANL01FL": "Y",
      "DTYPE": "LOCF",
      "AWRANGE": "85-140",
      "AWTARGET": 112.0,
      "AWTDIFF": 57.0,
      "AWLO": 85.0,
      "AWHI": 140.0,
      "AWU": "DAYS",
      "QSSEQ": 6001.0
    },
    {
      "STUDYID": "CDISCPILOT01",
      "SITEID": "701",
      "SITEGR1": "701",
      "USUBJID": "01-701-1211",
      "TRTSDT": 19312.0,
      "TRTEDT": 19370.0,
      "TRTP": "Xanomeline Low Dose",
      "TRTPN": 54.0,
      "AGE": 76.0,
      "AGEGR1": "65-80",
      "AGEGR1N": 2.0,
      "RACE": "WHITE",
      "RACEN": 1.0,
      "SEX": "F",
      "ITTFL": "Y",
      "EFFFL": "Y",
      "COMP24FL": "N",
      "AVISIT": "Week 24",
      "AVISITN": 24.0,
      "VISIT": "WEEK 8",
      "VISITNUM": 8.0,
      "ADY": 55.0,
      "ADT": 19366.0,
      "PARAMCD": "CIBICVAL",
      "PARAM": "CIBIC Score",
      "PARAMN": 1.0,
      "AVAL": 5.0,
      "ANL01FL": "Y",
      "DTYPE": "LOCF",
      "AWRANGE": ">140",
      "AWTARGET": 168.0,
      "AWTDIFF": 113.0,
      "AWLO": 141.0,
      "AWHI": 220.0,
      "AWU": "DAYS",
      "QSSEQ": 6001.0
    },
    {
      "STUDYID": "CDISCPILOT01",
      "SITEID": "701",
      "SITEGR1": "701",
      "USUBJID": "01-701-1234",
      "TRTSDT": 19447.0,
      "TRTEDT": 19623.0,
      "TRTP": "Placebo",
      "TRTPN": 5.397605346934028e-79,
      "AGE": 69.0,
      "AGEGR1": "65-80",
      "AGEGR1N": 2.0,
      "RACE": "WHITE",
      "RACEN": 1.0,
      "SEX": "M",
      "ITTFL": "Y",
      "EFFFL": "Y",
      "COMP24FL": "Y",
      "AVISIT": "Week 8",
      "AVISITN": 8.0,
      "VISIT": "WEEK 8",
      "VISITNUM": 8.0,
      "ADY": 58.0,
      "ADT": 19504.0,
      "PARAMCD": "CIBICVAL",
      "PARAM": "CIBIC Score",
      "PARAMN": 1.0,
      "AVAL": 3.0,
      "ANL01FL": "Y",
      "DTYPE": "",
      "AWRANGE": "2-84",
      "AWTARGET": 56.0,
      "AWTDIFF": 2.0,
      "AWLO": 2.0,
      "AWHI": 84.0,
      "AWU": "DAYS",
      "QSSEQ": 6001.0
    },
    {
      "STUDYID": "CDISCPILOT01",
      "SITEID": "701",
      "SITEGR1": "701",
      "USUBJID": "01-701-1234",
      "TRTSDT": 19447.0,
      "TRTEDT": 19623.0,
      "TRTP": "Placebo",
      "TRTPN": 5.397605346934028e-79,
      "AGE": 69.0,
      "AGEGR1": "65-80",
      "AGEGR1N": 2.0,
      "RACE": "WHITE",
      "RACEN": 1.0,
      "SEX": "M",
      "ITTFL": "Y",
      "EFFFL": "Y",
      "COMP24FL": "Y",
      "AVISIT": "Week 16",
      "AVISITN": 16.0,
      "VISIT": "WEEK 16",
      "VISITNUM": 10.0,
      "ADY": 120.0,
      "ADT": 19566.0,
      "PARAMCD": "CIBICVAL",
      "PARAM": "CIBIC Score",
      "PARAMN": 1.0,
      "AVAL": 4.0,
      "ANL01FL": "Y",
      "DTYPE": "",
      "AWRANGE": "85-140",
      "AWTARGET": 112.0,
      "AWTDIFF": 8.0,
      "AWLO": 85.0,
      "AWHI": 140.0,
      "AWU": "DAYS",
      "QSSEQ": 6002.0
    },
    {
      "STUDYID": "CDISCPILOT01",
      "SITEID": "701",
      "SITEGR1": "701",
      "USUBJID": "01-701-1234",
      "TRTSDT": 19447.0,
      "TRTEDT": 19623.0,
      "TRTP": "Placebo",
      "TRTPN": 5.397605346934028e-79,
      "AGE": 69.0,
      "AGEGR1": "65-80",
      "AGEGR1N": 2.0,
      "RACE": "WHITE",
      "RACEN": 1.0,
      "SEX": "M",
      "ITTFL": "Y",
      "EFFFL": "Y",
      "COMP24FL": "Y",
      "AVISIT": "Week 24",
      "AVISITN": 24.0,
      "VISIT": "WEEK 24",
      "VISITNUM": 12.0,
      "ADY": 165.0,
      "ADT": 19611.0,
      "PARAMCD": "CIBICVAL",
      "PARAM": "CIBIC Score",
      "PARAMN": 1.0,
      "AVAL": 4.0,
      "ANL01FL": "Y",
      "DTYPE": "",
      "AWRANGE": ">140",
      "AWTARGET": 168.0,
      "AWTDIFF": 3.0,
      "AWLO": 141.0,
      "AWHI": 220.0,
      "AWU": "DAYS",
      "QSSEQ": 6003.0
    },
    {
      "STUDYID": "CDISCPILOT01",
      "SITEID": "701",
      "SITEGR1": "701",
      "USUBJID": "01-701-1239",
      "TRTSDT": 19734.0,
      "TRTEDT": 19914.0,
      "TRTP": "Xanomeline High Dose",
      "TRTPN": 81.0,
      "AGE": 56.0,
      "AGEGR1": "<65",
      "AGEGR1N": 1.0,
      "RACE": "WHITE",
      "RACEN": 1.0,
      "SEX": "M",
      "ITTFL": "Y",
      "EFFFL": "Y",
      "COMP24FL": "Y",
      "AVISIT": "Week 8",
      "AVISITN": 8.0,
      "VISIT": "WEEK 8",
      "VISITNUM": 8.0,
      "ADY": 55.0,
      "ADT": 19788.0,
      "PARAMCD": "CIBICVAL",
      "PARAM": "CIBIC Score",
      "PARAMN": 1.0,
      "AVAL": 3.0,
      "ANL01FL": "Y",
      "DTYPE": "",
      "AWRANGE": "2-84",
      "AWTARGET": 56.0,
      "AWTDIFF": 1.0,
      "AWLO": 2.0,
      "AWHI": 84.0,
      "AWU": "DAYS",
      "QSSEQ": 6001.0
    },
    {
      "STUDYID": "CDISCPILOT01",
      "SITEID": "701",
      "SITEGR1": "701",
      "USUBJID": "01-701-1239",
      "TRTSDT": 19734.0,
      "TRTEDT": 19914.0,
      "TRTP": "Xanomeline High Dose",
      "TRTPN": 81.0,
      "AGE": 56.0,
      "AGEGR1": "<65",
      "AGEGR1N": 1.0,
      "RACE": "WHITE",
      "RACEN": 1.0,
      "SEX": "M",
      "ITTFL": "Y",
      "EFFFL": "Y",
      "COMP24FL": "Y",
      "AVISIT": "Week 16",
      "AVISITN": 16.0,
      "VISIT": "WEEK 16",
      "VISITNUM": 10.0,
      "ADY": 112.0,
      "ADT": 19845.0,
      "PARAMCD": "CIBICVAL",
      "PARAM": "CIBIC Score",
      "PARAMN": 1.0,
      "AVAL": 2.0,
      "ANL01FL": "Y",
      "DTYPE": "",
      "AWRANGE": "85-140",
      "AWTARGET": 112.0,
      "AWTDIFF": 5.397605346934028e-79,
      "AWLO": 85.0,
      "AWHI": 140.0,
      "AWU": "DAYS",
      "QSSEQ": 6002.0
    },
    {
      "STUDYID": "CDISCPILOT01",
      "SITEID": "701",
      "SITEGR1": "701",
      "USUBJID": "01-701-1239",
      "TRTSDT": 19734.0,
      "TRTEDT": 19914.0,
      "TRTP": "Xanomeline High Dose",
      "TRTPN": 81.0,
      "AGE": 56.0,
      "AGEGR1": "<65",
      "AGEGR1N": 1.0,
      "RACE": "WHITE",
      "RACEN": 1.0,
      "SEX": "M",
      "ITTFL": "Y",
      "EFFFL": "Y",
      "COMP24FL": "Y",
      "AVISIT": "Week 24",
      "AVISITN": 24.0,
      "VISIT": "WEEK 24",
      "VISITNUM": 12.0,
      "ADY": 168.0,
      "ADT": 19901.0,
      "PARAMCD": "CIBICVAL",
      "PARAM": "CIBIC Score",
      "PARAMN": 1.0,
      "AVAL": 3.0,
      "ANL01FL": "Y",
      "DTYPE": "",
      "AWRANGE": ">140",
      "AWTARGET": 168.0,
      "AWTDIFF": 5.397605346934028e-79,
      "AWLO": 141.0,
      "AWHI": 220.0,
      "AWU": "DAYS",
      "QSSEQ": 6003.0
    },
    {
      "STUDYID": "CDISCPILOT01",
      "SITEID": "701",
      "SITEGR1": "701",
      "USUBJID": "01-701-1275",
      "TRTSDT": 19761.0,
      "TRTEDT": 19874.0,
      "TRTP": "Xanomeline High Dose",
      "TRTPN": 81.0,
      "AGE": 61.0,
      "AGEGR1": "<65",
      "AGEGR1N": 1.0,
      "RACE": "AMERICAN INDIAN OR ALASKA NATIVE",
      "RACEN": 6.0,
      "SEX": "M",
      "ITTFL": "Y",
      "EFFFL": "Y",
      "COMP24FL": "N",
      "AVISIT": "Week 8",
      "AVISITN": 8.0,
      "VISIT": "WEEK 8",
      "VISITNUM": 8.0,
      "ADY": 58.0,
      "ADT": 19818.0,
      "PARAMCD": "CIBICVAL",
      "PARAM": "CIBIC Score",
      "PARAMN": 1.0,
      "AVAL": 3.0,
      "ANL01FL": "Y",
      "DTYPE": "",
      "AWRANGE": "2-84",
      "AWTARGET": 56.0,
      "AWTDIFF": 2.0,
      "AWLO": 2.0,
      "AWHI": 84.0,
      "AWU": "DAYS",
      "QSSEQ": 6001.0
    },
    {
      "STUDYID": "CDISCPILOT01",
      "SITEID": "701",
      "SITEGR1": "701",
      "USUBJID": "01-701-1275",
      "TRTSDT": 19761.0,
      "TRTEDT": 19874.0,
      "TRTP": "Xanomeline High Dose",
      "TRTPN": 81.0,
      "AGE": 61.0,
      "AGEGR1": "<65",
      "AGEGR1N": 1.0,
      "RACE": "AMERICAN INDIAN OR ALASKA NATIVE",
      "RACEN": 6.0,
      "SEX": "M",
      "ITTFL": "Y",
      "EFFFL": "Y",
      "COMP24FL": "N",
      "AVISIT": "Week 16",
      "AVISITN": 16.0,
      "VISIT": "WEEK 16",
      "VISITNUM": 10.0,
      "ADY": 128.0,
      "ADT": 19888.0,
      "PARAMCD": "CIBICVAL",
      "PARAM": "CIBIC Score",
      "PARAMN": 1.0,
      "AVAL": 4.0,
      "ANL01FL": "Y",
      "DTYPE": "",
      "AWRANGE": "85-140",
      "AWTARGET": 112.0,
      "AWTDIFF": 16.0,
      "AWLO": 85.0,
      "AWHI": 140.0,
      "AWU": "DAYS",
      "QSSEQ": 6002.0
    },
    {
      "STUDYID": "CDISCPILOT01",
      "SITEID": "701",
      "SITEGR1": "701",
      "USUBJID": "01-701-1275",
      "TRTSDT": 19761.0,
      "TRTEDT": 19874.0,
      "TRTP": "Xanomeline High Dose",
      "TRTPN": 81.0,
      "AGE": 61.0,
      "AGEGR1": "<65",
      "AGEGR1N": 1.0,
      "RACE": "AMERICAN INDIAN OR ALASKA NATIVE",
      "RACEN": 6.0,
      "SEX": "M",
      "ITTFL": "Y",
      "EFFFL": "Y",
      "COMP24FL": "N",
      "AVISIT": "Week 24",
      "AVISITN": 24.0,
      "VISIT": "WEEK 16",
      "VISITNUM": 10.0,
      "ADY": 128.0,
      "ADT": 19888.0,
      "PARAMCD": "CIBICVAL",
      "PARAM": "CIBIC Score",
      "PARAMN": 1.0,
      "AVAL": 4.0,
      "ANL01FL": "Y",
      "DTYPE": "LOCF",
      "AWRANGE": ">140",
      "AWTARGET": 168.0,
      "AWTDIFF": 40.0,
      "AWLO": 141.0,
      "AWHI": 220.0,
      "AWU": "DAYS",
      "QSSEQ": 6002.0
    },
    {
      "STUDYID": "CDISCPILOT01",
      "SITEID": "701",
      "SITEGR1": "701",
      "USUBJID": "01-701-1287",
      "TRTSDT": 19748.0,
      "TRTEDT": 19930.0,
      "TRTP": "Xanomeline High Dose",
      "TRTPN": 81.0,
      "AGE": 56.0,
      "AGEGR1": "<65",
      "AGEGR1N": 1.0,
      "RACE": "WHITE",
      "RACEN": 1.0,
      "SEX": "F",
      "ITTFL": "Y",
      "EFFFL": "Y",
      "COMP24FL": "Y",
      "AVISIT": "Week 8",
      "AVISITN": 8.0,
      "VISIT": "WEEK 8",
      "VISITNUM": 8.0,
      "ADY": 56.0,
      "ADT": 19803.0,
      "PARAMCD": "CIBICVAL",
      "PARAM": "CIBIC Score",
      "PARAMN": 1.0,
      "AVAL": 4.0,
      "ANL01FL": "Y",
      "DTYPE": "",
      "AWRANGE": "2-84",
      "AWTARGET": 56.0,
      "AWTDIFF": 5.397605346934028e-79,
      "AWLO": 2.0,
      "AWHI": 84.0,
      "AWU": "DAYS",
      "QSSEQ": 6001.0
    },
    {
      "STUDYID": "CDISCPILOT01",
      "SITEID": "701",
      "SITEGR1": "701",
      "USUBJID": "01-701-1287",
      "TRTSDT": 19748.0,
      "TRTEDT": 19930.0,
      "TRTP": "Xanomeline High Dose",
      "TRTPN": 81.0,
      "AGE": 56.0,
      "AGEGR1": "<65",
      "AGEGR1N": 1.0,
      "RACE": "WHITE",
      "RACEN": 1.0,
      "SEX": "F",
      "ITTFL": "Y",
      "EFFFL": "Y",
      "COMP24FL": "Y",
      "AVISIT": "Week 16",
      "AVISITN": 16.0,
      "VISIT": "WEEK 16",
      "VISITNUM": 10.0,
      "ADY": 111.0,
      "ADT": 19858.0,
      "PARAMCD": "CIBICVAL",
      "PARAM": "CIBIC Score",
      "PARAMN": 1.0,
      "AVAL": 4.0,
      "ANL01FL": "Y",
      "DTYPE": "",
      "AWRANGE": "85-140",
      "AWTARGET": 112.0,
      "AWTDIFF": 1.0,
      "AWLO": 85.0,
      "AWHI": 140.0,
      "AWU": "DAYS",
      "QSSEQ": 6002.0
    },
    {
      "STUDYID": "CDISCPILOT01",
      "SITEID": "701",
      "SITEGR1": "701",
      "USUBJID": "01-701-1287",
      "TRTSDT": 19748.0,
      "TRTEDT": 19930.0,
      "TRTP": "Xanomeline High Dose",
      "TRTPN": 81.0,
      "AGE": 56.0,
      "AGEGR1": "<65",
      "AGEGR1N": 1.0,
      "RACE": "WHITE",
      "RACEN": 1.0,
      "SEX": "F",
      "ITTFL": "Y",
      "EFFFL": "Y",
      "COMP24FL": "Y",
      "AVISIT": "Week 24",
      "AVISITN": 24.0,
      "VISIT": "WEEK 24",
      "VISITNUM": 12.0,
      "ADY": 169.0,
      "ADT": 19916.0,
      "PARAMCD": "CIBICVAL",
      "PARAM": "CIBIC Score",
      "PARAMN": 1.0,
      "AVAL": 4.0,
      "ANL01FL": "Y",
      "DTYPE": "",
      "AWRANGE": ">140",
      "AWTARGET": 168.0,
      "AWTDIFF": 1.0,
      "AWLO": 141.0,
      "AWHI": 220.0,
      "AWU": "DAYS",
      "QSSEQ": 6003.0
    },
    {
      "STUDYID": "CDISCPILOT01",
      "SITEID": "701",
      "SITEGR1": "701",
      "USUBJID": "01-701-1294",
      "TRTSDT": 19441.0,
      "TRTEDT": 19523.0,
      "TRTP": "Xanomeline Low Dose",
      "TRTPN": 54.0,
      "AGE": 67.0,
      "AGEGR1": "65-80",
      "AGEGR1N": 2.0,
      "RACE": "WHITE",
      "RACEN": 1.0,
      "SEX": "M",
      "ITTFL": "Y",
      "EFFFL": "Y",
      "COMP24FL": "N",
      "AVISIT": "Week 8",
      "AVISITN": 8.0,
      "VISIT": "WEEK 8",
      "VISITNUM": 8.0,
      "ADY": 60.0,
      "ADT": 19500.0,
      "PARAMCD": "CIBICVAL",
      "PARAM": "CIBIC Score",
      "PARAMN": 1.0,
      "AVAL": 5.0,
      "ANL01FL": "Y",
      "DTYPE": "",
      "AWRANGE": "2-84",
      "AWTARGET": 56.0,
      "AWTDIFF": 4.0,
      "AWLO": 2.0,
      "AWHI": 84.0,
      "AWU": "DAYS",
      "QSSEQ": 6001.0
    },
    {
      "STUDYID": "CDISCPILOT01",
      "SITEID": "701",
      "SITEGR1": "701",
      "USUBJID": "01-701-1294",
      "TRTSDT": 19441.0,
      "TRTEDT": 19523.0,
      "TRTP": "Xanomeline Low Dose",
      "TRTPN": 54.0,
      "AGE": 67.0,
      "AGEGR1": "65-80",
      "AGEGR1N": 2.0,
      "RACE": "WHITE",
      "RACEN": 1.0,
      "SEX": "M",
      "ITTFL": "Y",
      "EFFFL": "Y",
      "COMP24FL": "N",
      "AVISIT": "Week 8",
      "AVISITN": 8.0,
      "VISIT": "WEEK 12",
      "VISITNUM": 9.0,
      "ADY": 83.0,
      "ADT": 19523.0,
      "PARAMCD": "CIBICVAL",
      "PARAM": "CIBIC Score",
      "PARAMN": 1.0,
      "AVAL": 4.0,
      "ANL01FL": "",
      "DTYPE": "",
      "AWRANGE": "2-84",
      "AWTARGET": 56.0,
      "AWTDIFF": 27.0,
      "AWLO": 2.0,
      "AWHI": 84.0,
      "AWU": "DAYS",
      "QSSEQ": 6002.0
    },
    {
      "STUDYID": "CDISCPILOT01",
      "SITEID": "701",
      "SITEGR1": "701",
      "USUBJID": "01-701-1294",
      "TRTSDT": 19441.0,
      "TRTEDT": 19523.0,
      "TRTP": "Xanomeline Low Dose",
      "TRTPN": 54.0,
      "AGE": 67.0,
      "AGEGR1": "65-80",
      "AGEGR1N": 2.0,
      "RACE": "WHITE",
      "RACEN": 1.0,
      "SEX": "M",
      "ITTFL": "Y",
      "EFFFL": "Y",
      "COMP24FL": "N",
      "AVISIT": "Week 16",
      "AVISITN": 16.0,
      "VISIT": "WEEK 12",
      "VISITNUM": 9.0,
      "ADY": 83.0,
      "ADT": 19523.0,
      "PARAMCD": "CIBICVAL",
      "PARAM": "CIBIC Score",
      "PARAMN": 1.0,
      "AVAL": 5.0,
      "ANL01FL": "Y",
      "DTYPE": "LOCF",
      "AWRANGE": "85-140",
      "AWTARGET": 112.0,
      "AWTDIFF": 29.0,
      "AWLO": 85.0,
      "AWHI": 140.0,
      "AWU": "DAYS",
      "QSSEQ": 6002.0
    },
    {
      "STUDYID": "CDISCPILOT01",
      "SITEID": "701",
      "SITEGR1": "701",
      "USUBJID": "01-701-1294",
      "TRTSDT": 19441.0,
      "TRTEDT": 19523.0,
      "TRTP": "Xanomeline Low Dose",
      "TRTPN": 54.0,
      "AGE": 67.0,
      "AGEGR1": "65-80",
      "AGEGR1N": 2.0,
      "RACE": "WHITE",
      "RACEN": 1.0,
      "SEX": "M",
      "ITTFL": "Y",
      "EFFFL": "Y",
      "COMP24FL": "N",
      "AVISIT": "Week 24",
      "AVISITN": 24.0,
      "VISIT": "RETRIEVAL",
      "VISITNUM": 201.0,
      "ADY": 199.0,
      "ADT": 19639.0,
      "PARAMCD": "CIBICVAL",
      "PARAM": "CIBIC Score",
      "PARAMN": 1.0,
      "AVAL": 5.0,
      "ANL01FL": "Y",
      "DTYPE": "",
      "AWRANGE": ">140",
      "AWTARGET": 168.0,
      "AWTDIFF": 31.0,
      "AWLO": 141.0,
      "AWHI": 220.0,
      "AWU": "DAYS",
      "QSSEQ": 6003.0
    },
    {
      "STUDYID": "CDISCPILOT01",
      "SITEID": "701",
      "SITEGR1": "701",
      "USUBJID": "01-701-1302",
      "TRTSDT": 19599.0,
      "TRTEDT": 19667.0,
      "TRTP": "Xanomeline High Dose",
      "TRTPN": 81.0,
      "AGE": 61.0,
      "AGEGR1": "<65",
      "AGEGR1N": 1.0,
      "RACE": "WHITE",
      "RACEN": 1.0,
      "SEX": "M",
      "ITTFL": "Y",
      "EFFFL": "Y",
      "COMP24FL": "N",
      "AVISIT": "Week 8",
      "AVISITN": 8.0,
      "VISIT": "WEEK 8",
      "VISITNUM": 8.0,
      "ADY": 55.0,
      "ADT": 19653.0,
      "PARAMCD": "CIBICVAL",
      "PARAM": "CIBIC Score",
      "PARAMN": 1.0,
      "AVAL": 4.0,
      "ANL01FL": "Y",
      "DTYPE": "",
      "AWRANGE": "2-84",
      "AWTARGET": 56.0,
      "AWTDIFF": 1.0,
      "AWLO": 2.0,
      "AWHI": 84.0,
      "AWU": "DAYS",
      "QSSEQ": 6001.0
    },
    {
      "STUDYID": "CDISCPILOT01",
      "SITEID": "701",
      "SITEGR1": "701",
      "USUBJID": "01-701-1302",
      "TRTSDT": 19599.0,
      "TRTEDT": 19667.0,
      "TRTP": "Xanomeline High Dose",
      "TRTPN": 81.0,
      "AGE": 61.0,
      "AGEGR1": "<65",
      "AGEGR1N": 1.0,
      "RACE": "WHITE",
      "RACEN": 1.0,
      "SEX": "M",
      "ITTFL": "Y",
      "EFFFL": "Y",
      "COMP24FL": "N",
      "AVISIT": "Week 8",
      "AVISITN": 8.0,
      "VISIT": "WEEK 12",
      "VISITNUM": 9.0,
      "ADY": 69.0,
      "ADT": 19667.0,
      "PARAMCD": "CIBICVAL",
      "PARAM": "CIBIC Score",
      "PARAMN": 1.0,
      "AVAL": 5.0,
      "ANL01FL": "",
      "DTYPE": "",
      "AWRANGE": "2-84",
      "AWTARGET": 56.0,
      "AWTDIFF": 13.0,
      "AWLO": 2.0,
      "AWHI": 84.0,
      "AWU": "DAYS",
      "QSSEQ": 6002.0
    },
    {
      "STUDYID": "CDISCPILOT01",
      "SITEID": "701",
      "SITEGR1": "701",
      "USUBJID": "01-701-1302",
      "TRTSDT": 19599.0,
      "TRTEDT": 19667.0,
      "TRTP": "Xanomeline High Dose",
      "TRTPN": 81.0,
      "AGE": 61.0,
      "AGEGR1": "<65",
      "AGEGR1N": 1.0,
      "RACE": "WHITE",
      "RACEN": 1.0,
      "SEX": "M",
      "ITTFL": "Y",
      "EFFFL": "Y",
      "COMP24FL": "N",
      "AVISIT": "Week 16",
      "AVISITN": 16.0,
      "VISIT": "WEEK 12",
      "VISITNUM": 9.0,
      "ADY": 69.0,
      "ADT": 19667.0,
      "PARAMCD": "CIBICVAL",
      "PARAM": "CIBIC Score",
      "PARAMN": 1.0,
      "AVAL": 4.0,
      "ANL01FL": "Y",
      "DTYPE": "LOCF",
      "AWRANGE": "85-140",
      "AWTARGET": 112.0,
      "AWTDIFF": 43.0,
      "AWLO": 85.0,
      "AWHI": 140.0,
      "AWU": "DAYS",
      "QSSEQ": 6002.0
    },
    {
      "STUDYID": "CDISCPILOT01",
      "SITEID": "701",
      "SITEGR1": "701",
      "USUBJID": "01-701-1302",
      "TRTSDT": 19599.0,
      "TRTEDT": 19667.0,
      "TRTP": "Xanomeline High Dose",
      "TRTPN": 81.0,
      "AGE": 61.0,
      "AGEGR1": "<65",
      "AGEGR1N": 1.0,
      "RACE": "WHITE",
      "RACEN": 1.0,
      "SEX": "M",
      "ITTFL": "Y",
      "EFFFL": "Y",
      "COMP24FL": "N",
      "AVISIT": "Week 24",
      "AVISITN": 24.0,
      "VISIT": "RETRIEVAL",
      "VISITNUM": 201.0,
      "ADY": 169.0,
      "ADT": 19767.0,
      "PARAMCD": "CIBICVAL",
      "PARAM": "CIBIC Score",
      "PARAMN": 1.0,
      "AVAL": 4.0,
      "ANL01FL": "Y",
      "DTYPE": "",
      "AWRANGE": ">140",
      "AWTARGET": 168.0,
      "AWTDIFF": 1.0,
      "AWLO": 141.0,
      "AWHI": 220.0,
      "AWU": "DAYS",
      "QSSEQ": 6003.0
    },
    {
      "STUDYID": "CDISCPILOT01",
      "SITEID": "701",
      "SITEGR1": "701",
      "USUBJID": "01-701-1317",
      "TRTSDT": 19865.0,
      "TRTEDT": 20047.0,
      "TRTP": "Xanomeline Low Dose",
      "TRTPN": 54.0,
      "AGE": 68.0,
      "AGEGR1": "65-80",
      "AGEGR1N": 2.0,
      "RACE": "WHITE",
      "RACEN": 1.0,
      "SEX": "M",
      "ITTFL": "Y",
      "EFFFL": "Y",
      "COMP24FL": "Y",
      "AVISIT": "Week 8",
      "AVISITN": 8.0,
      "VISIT": "WEEK 8",
      "VISITNUM": 8.0,
      "ADY": 62.0,
      "ADT": 19926.0,
      "PARAMCD": "CIBICVAL",
      "PARAM": "CIBIC Score",
      "PARAMN": 1.0,
      "AVAL": 4.0,
      "ANL01FL": "Y",
      "DTYPE": "",
      "AWRANGE": "2-84",
      "AWTARGET": 56.0,
      "AWTDIFF": 6.0,
      "AWLO": 2.0,
      "AWHI": 84.0,
      "AWU": "DAYS",
      "QSSEQ": 6001.0
    },
    {
      "STUDYID": "CDISCPILOT01",
      "SITEID": "701",
      "SITEGR1": "701",
      "USUBJID": "01-701-1317",
      "TRTSDT": 19865.0,
      "TRTEDT": 20047.0,
      "TRTP": "Xanomeline Low Dose",
      "TRTPN": 54.0,
      "AGE": 68.0,
      "AGEGR1": "65-80",
      "AGEGR1N": 2.0,
      "RACE": "WHITE",
      "RACEN": 1.0,
      "SEX": "M",
      "ITTFL": "Y",
      "EFFFL": "Y",
      "COMP24FL": "Y",
      "AVISIT": "Week 16",
      "AVISITN": 16.0,
      "VISIT": "WEEK 16",
      "VISITNUM": 10.0,
      "ADY": 113.0,
      "ADT": 19977.0,
      "PARAMCD": "CIBICVAL",
      "PARAM": "CIBIC Score",
      "PARAMN": 1.0,
      "AVAL": 4.0,
      "ANL01FL": "Y",
      "DTYPE": "",
      "AWRANGE": "85-140",
      "AWTARGET": 112.0,
      "AWTDIFF": 1.0,
      "AWLO": 85.0,
      "AWHI": 140.0,
      "AWU": "DAYS",
      "QSSEQ": 6002.0
    },
    {
      "STUDYID": "CDISCPILOT01",
      "SITEID": "701",
      "SITEGR1": "701",
      "USUBJID": "01-701-1317",
      "TRTSDT": 19865.0,
      "TRTEDT": 20047.0,
      "TRTP": "Xanomeline Low Dose",
      "TRTPN": 54.0,
      "AGE": 68.0,
      "AGEGR1": "65-80",
      "AGEGR1N": 2.0,
      "RACE": "WHITE",
      "RACEN": 1.0,
      "SEX": "M",
      "ITTFL": "Y",
      "EFFFL": "Y",
      "COMP24FL": "Y",
      "AVISIT": "Week 24",
      "AVISITN": 24.0,
      "VISIT": "WEEK 24",
      "VISITNUM": 12.0,
      "ADY": 169.0,
      "ADT": 20033.0,
      "PARAMCD": "CIBICVAL",
      "PARAM": "CIBIC Score",
      "PARAMN": 1.0,
      "AVAL": 4.0,
      "ANL01FL": "Y",
      "DTYPE": "",
      "AWRANGE": ">140",
      "AWTARGET": 168.0,
      "AWTDIFF": 1.0,
      "AWLO": 141.0,
      "AWHI": 220.0,
      "AWU": "DAYS",
      "QSSEQ": 6003.0
    },
    {
      "STUDYID": "CDISCPILOT01",
      "SITEID": "701",
      "SITEGR1": "701",
      "USUBJID": "01-701-1324",
      "TRTSDT": 19268.0,
      "TRTEDT": 19450.0,
      "TRTP": "Xanomeline Low Dose",
      "TRTPN": 54.0,
      "AGE": 79.0,
      "AGEGR1": "65-80",
      "AGEGR1N": 2.0,
      "RACE": "WHITE",
      "RACEN": 1.0,
      "SEX": "M",
      "ITTFL": "Y",
      "EFFFL": "Y",
      "COMP24FL": "Y",
      "AVISIT": "Week 8",
      "AVISITN": 8.0,
      "VISIT": "WEEK 8",
      "VISITNUM": 8.0,
      "ADY": 55.0,
      "ADT": 19322.0,
      "PARAMCD": "CIBICVAL",
      "PARAM": "CIBIC Score",
      "PARAMN": 1.0,
      "AVAL": 4.0,
      "ANL01FL": "Y",
      "DTYPE": "",
      "AWRANGE": "2-84",
      "AWTARGET": 56.0,
      "AWTDIFF": 1.0,
      "AWLO": 2.0,
      "AWHI": 84.0,
      "AWU": "DAYS",
      "QSSEQ": 6001.0
    },
    {
      "STUDYID": "CDISCPILOT01",
      "SITEID": "701",
      "SITEGR1": "701",
      "USUBJID": "01-701-1324",
      "TRTSDT": 19268.0,
      "TRTEDT": 19450.0,
      "TRTP": "Xanomeline Low Dose",
      "TRTPN": 54.0,
      "AGE": 79.0,
      "AGEGR1": "65-80",
      "AGEGR1N": 2.0,
      "RACE": "WHITE",
      "RACEN": 1.0,
      "SEX": "M",
      "ITTFL": "Y",
      "EFFFL": "Y",
      "COMP24FL": "Y",
      "AVISIT": "Week 16",
      "AVISITN": 16.0,
      "VISIT": "WEEK 16",
      "VISITNUM": 10.0,
      "ADY": 113.0,
      "ADT": 19380.0,
      "PARAMCD": "CIBICVAL",
      "PARAM": "CIBIC Score",
      "PARAMN": 1.0,
      "AVAL": 4.0,
      "ANL01FL": "Y",
      "DTYPE": "",
      "AWRANGE": "85-140",
      "AWTARGET": 112.0,
      "AWTDIFF": 1.0,
      "AWLO": 85.0,
      "AWHI": 140.0,
      "AWU": "DAYS",
      "QSSEQ": 6002.0
    },
    {
      "STUDYID": "CDISCPILOT01",
      "SITEID": "701",
      "SITEGR1": "701",
      "USUBJID": "01-701-1324",
      "TRTSDT": 19268.0,
      "TRTEDT": 19450.0,
      "TRTP": "Xanomeline Low Dose",
      "TRTPN": 54.0,
      "AGE": 79.0,
      "AGEGR1": "65-80",
      "AGEGR1N": 2.0,
      "RACE": "WHITE",
      "RACEN": 1.0,
      "SEX": "M",
      "ITTFL": "Y",
      "EFFFL": "Y",
      "COMP24FL": "Y",
      "AVISIT": "Week 24",
      "AVISITN": 24.0,
      "VISIT": "WEEK 24",
      "VISITNUM": 12.0,
      "ADY": 169.0,
      "ADT": 19436.0,
      "PARAMCD": "CIBICVAL",
      "PARAM": "CIBIC Score",
      "PARAMN": 1.0,
      "AVAL": 5.0,
      "ANL01FL": "Y",
      "DTYPE": "",
      "AWRANGE": ">140",
      "AWTARGET": 168.0,
      "AWTDIFF": 1.0,
      "AWLO": 141.0,
      "AWHI": 220.0,
      "AWU": "DAYS",
      "QSSEQ": 6003.0
    },
    {
      "STUDYID": "CDISCPILOT01",
      "SITEID": "701",
      "SITEGR1": "701",
      "USUBJID": "01-701-1341",
      "TRTSDT": 19363.0,
      "TRTEDT": 19384.0,
      "TRTP": "Xanomeline Low Dose",
      "TRTPN": 54.0,
      "AGE": 51.0,
      "AGEGR1": "<65",
      "AGEGR1N": 1.0,
      "RACE": "WHITE",
      "RACEN": 1.0,
      "SEX": "M",
      "ITTFL": "Y",
      "EFFFL": "Y",
      "COMP24FL": "N",
      "AVISIT": "Week 8",
      "AVISITN": 8.0,
      "VISIT": "WEEK 4",
      "VISITNUM": 5.0,
      "ADY": 34.0,
      "ADT": 19396.0,
      "PARAMCD": "CIBICVAL",
      "PARAM": "CIBIC Score",
      "PARAMN": 1.0,
      "AVAL": 4.0,
      "ANL01FL": "Y",
      "DTYPE": "",
      "AWRANGE": "2-84",
      "AWTARGET": 56.0,
      "AWTDIFF": 22.0,
      "AWLO": 2.0,
      "AWHI": 84.0,
      "AWU": "DAYS",
      "QSSEQ": 6001.0
    },
    {
      "STUDYID": "CDISCPILOT01",
      "SITEID": "701",
      "SITEGR1": "701",
      "USUBJID": "01-701-1341",
      "TRTSDT": 19363.0,
      "TRTEDT": 19384.0,
      "TRTP": "Xanomeline Low Dose",
      "TRTPN": 54.0,
      "AGE": 51.0,
      "AGEGR1": "<65",
      "AGEGR1N": 1.0,
      "RACE": "WHITE",
      "RACEN": 1.0,
      "SEX": "M",
      "ITTFL": "Y",
      "EFFFL": "Y",
      "COMP24FL": "N",
      "AVISIT": "Week 16",
      "AVISITN": 16.0,
      "VISIT": "WEEK 4",
      "VISITNUM": 5.0,
      "ADY": 34.0,
      "ADT": 19396.0,
      "PARAMCD": "CIBICVAL",
      "PARAM": "CIBIC Score",
      "PARAMN": 1.0,
      "AVAL": 4.0,
      "ANL01FL": "Y",
      "DTYPE": "LOCF",
      "AWRANGE": "85-140",
      "AWTARGET": 112.0,
      "AWTDIFF": 78.0,
      "AWLO": 85.0,
      "AWHI": 140.0,
      "AWU": "DAYS",
      "QSSEQ": 6001.0
    },
    {
      "STUDYID": "CDISCPILOT01",
      "SITEID": "701",
      "SITEGR1": "701",
      "USUBJID": "01-701-1341",
      "TRTSDT": 19363.0,
      "TRTEDT": 19384.0,
      "TRTP": "Xanomeline Low Dose",
      "TRTPN": 54.0,
      "AGE": 51.0,
      "AGEGR1": "<65",
      "AGEGR1N": 1.0,
      "RACE": "WHITE",
      "RACEN": 1.0,
      "SEX": "M",
      "ITTFL": "Y",
      "EFFFL": "Y",
      "COMP24FL": "N",
      "AVISIT": "Week 24",
      "AVISITN": 24.0,
      "VISIT": "WEEK 4",
      "VISITNUM": 5.0,
      "ADY": 34.0,
      "ADT": 19396.0,
      "PARAMCD": "CIBICVAL",
      "PARAM": "CIBIC Score",
      "PARAMN": 1.0,
      "AVAL": 4.0,
      "ANL01FL": "Y",
      "DTYPE": "LOCF",
      "AWRANGE": ">140",
      "AWTARGET": 168.0,
      "AWTDIFF": 134.0,
      "AWLO": 141.0,
      "AWHI": 220.0,
      "AWU": "DAYS",
      "QSSEQ": 6001.0
    },
    {
      "STUDYID": "CDISCPILOT01",
      "SITEID": "701",
      "SITEGR1": "701",
      "USUBJID": "01-701-1345",
      "TRTSDT": 19639.0,
      "TRTEDT": 19800.0,
      "TRTP": "Placebo",
      "TRTPN": 5.397605346934028e-79,
      "AGE": 63.0,
      "AGEGR1": "<65",
      "AGEGR1N": 1.0,
      "RACE": "WHITE",
      "RACEN": 1.0,
      "SEX": "F",
      "ITTFL": "Y",
      "EFFFL": "Y",
      "COMP24FL": "Y",
      "AVISIT": "Week 8",
      "AVISITN": 8.0,
      "VISIT": "WEEK 8",
      "VISITNUM": 8.0,
      "ADY": 57.0,
      "ADT": 19695.0,
      "PARAMCD": "CIBICVAL",
      "PARAM": "CIBIC Score",
      "PARAMN": 1.0,
      "AVAL": 4.0,
      "ANL01FL": "Y",
      "DTYPE": "",
      "AWRANGE": "2-84",
      "AWTARGET": 56.0,
      "AWTDIFF": 1.0,
      "AWLO": 2.0,
      "AWHI": 84.0,
      "AWU": "DAYS",
      "QSSEQ": 6001.0
    },
    {
      "STUDYID": "CDISCPILOT01",
      "SITEID": "701",
      "SITEGR1": "701",
      "USUBJID": "01-701-1345",
      "TRTSDT": 19639.0,
      "TRTEDT": 19800.0,
      "TRTP": "Placebo",
      "TRTPN": 5.397605346934028e-79,
      "AGE": 63.0,
      "AGEGR1": "<65",
      "AGEGR1N": 1.0,
      "RACE": "WHITE",
      "RACEN": 1.0,
      "SEX": "F",
      "ITTFL": "Y",
      "EFFFL": "Y",
      "COMP24FL": "Y",
      "AVISIT": "Week 16",
      "AVISITN": 16.0,
      "VISIT": "WEEK 16",
      "VISITNUM": 10.0,
      "ADY": 112.0,
      "ADT": 19750.0,
      "PARAMCD": "CIBICVAL",
      "PARAM": "CIBIC Score",
      "PARAMN": 1.0,
      "AVAL": 5.0,
      "ANL01FL": "Y",
      "DTYPE": "",
      "AWRANGE": "85-140",
      "AWTARGET": 112.0,
      "AWTDIFF": 5.397605346934028e-79,
      "AWLO": 85.0,
      "AWHI": 140.0,
      "AWU": "DAYS",
      "QSSEQ": 6002.0
    },
    {
      "STUDYID": "CDISCPILOT01",
      "SITEID": "701",
      "SITEGR1": "701",
      "USUBJID": "01-701-1345",
      "TRTSDT": 19639.0,
      "TRTEDT": 19800.0,
      "TRTP": "Placebo",
      "TRTPN": 5.397605346934028e-79,
      "AGE": 63.0,
      "AGEGR1": "<65",
      "AGEGR1N": 1.0,
      "RACE": "WHITE",
      "RACEN": 1.0,
      "SEX": "F",
      "ITTFL": "Y",
      "EFFFL": "Y",
      "COMP24FL": "Y",
      "AVISIT": "Week 24",
      "AVISITN": 24.0,
      "VISIT": "WEEK 24",
      "VISITNUM": 12.0,
      "ADY": 162.0,
      "ADT": 19800.0,
      "PARAMCD": "CIBICVAL",
      "PARAM": "CIBIC Score",
      "PARAMN": 1.0,
      "AVAL": 5.0,
      "ANL01FL": "Y",
      "DTYPE": "",
      "AWRANGE": ">140",
      "AWTARGET": 168.0,
      "AWTDIFF": 6.0,
      "AWLO": 141.0,
      "AWHI": 220.0,
      "AWU": "DAYS",
      "QSSEQ": 6003.0
    },
    {
      "STUDYID": "CDISCPILOT01",
      "SITEID": "701",
      "SITEGR1": "701",
      "USUBJID": "01-701-1360",
      "TRTSDT": 19570.0,
      "TRTEDT": 19575.0,
      "TRTP": "Xanomeline High Dose",
      "TRTPN": 81.0,
      "AGE": 67.0,
      "AGEGR1": "65-80",
      "AGEGR1N": 2.0,
      "RACE": "WHITE",
      "RACEN": 1.0,
      "SEX": "M",
      "ITTFL": "Y",
      "EFFFL": "Y",
      "COMP24FL": "N",
      "AVISIT": "Week 8",
      "AVISITN": 8.0,
      "VISIT": "WEEK 2",
      "VISITNUM": 4.0,
      "ADY": 15.0,
      "ADT": 19584.0,
      "PARAMCD": "CIBICVAL",
      "PARAM": "CIBIC Score",
      "PARAMN": 1.0,
      "AVAL": 4.0,
      "ANL01FL": "Y",
      "DTYPE": "",
      "AWRANGE": "2-84",
      "AWTARGET": 56.0,
      "AWTDIFF": 41.0,
      "AWLO": 2.0,
      "AWHI": 84.0,
      "AWU": "DAYS",
      "QSSEQ": 6001.0
    },
    {
      "STUDYID": "CDISCPILOT01",
      "SITEID": "701",
      "SITEGR1": "701",
      "USUBJID": "01-701-1360",
      "TRTSDT": 19570.0,
      "TRTEDT": 19575.0,
      "TRTP": "Xanomeline High Dose",
      "TRTPN": 81.0,
      "AGE": 67.0,
      "AGEGR1": "65-80",
      "AGEGR1N": 2.0,
      "RACE": "WHITE",
      "RACEN": 1.0,
      "SEX": "M",
      "ITTFL": "Y",
      "EFFFL": "Y",
      "COMP24FL": "N",
      "AVISIT": "Week 16",
      "AVISITN": 16.0,
      "VISIT": "WEEK 2",
      "VISITNUM": 4.0,
      "ADY": 15.0,
      "ADT": 19584.0,
      "PARAMCD": "CIBICVAL",
      "PARAM": "CIBIC Score",
      "PARAMN": 1.0,
      "AVAL": 4.0,
      "ANL01FL": "Y",
      "DTYPE": "LOCF",
      "AWRANGE": "85-140",
      "AWTARGET": 112.0,
      "AWTDIFF": 97.0,
      "AWLO": 85.0,
      "AWHI": 140.0,
      "AWU": "DAYS",
      "QSSEQ": 6001.0
    },
    {
      "STUDYID": "CDISCPILOT01",
      "SITEID": "701",
      "SITEGR1": "701",
      "USUBJID": "01-701-1360",
      "TRTSDT": 19570.0,
      "TRTEDT": 19575.0,
      "TRTP": "Xanomeline High Dose",
      "TRTPN": 81.0,
      "AGE": 67.0,
      "AGEGR1": "65-80",
      "AGEGR1N": 2.0,
      "RACE": "WHITE",
      "RACEN": 1.0,
      "SEX": "M",
      "ITTFL": "Y",
      "EFFFL": "Y",
      "COMP24FL": "N",
      "AVISIT": "Week 24",
      "AVISITN": 24.0,
      "VISIT": "RETRIEVAL",
      "VISITNUM": 201.0,
      "ADY": 196.0,
      "ADT": 19765.0,
      "PARAMCD": "CIBICVAL",
      "PARAM": "CIBIC Score",
      "PARAMN": 1.0,
      "AVAL": 4.0,
      "ANL01FL": "Y",
      "DTYPE": "",
      "AWRANGE": ">140",
      "AWTARGET": 168.0,
      "AWTDIFF": 28.0,
      "AWLO": 141.0,
      "AWHI": 220.0,
      "AWU": "DAYS",
      "QSSEQ": 6002.0
    },
    {
      "STUDYID": "CDISCPILOT01",
      "SITEID": "701",
      "SITEGR1": "701",
      "USUBJID": "01-701-1363",
      "TRTSDT": 19508.0,
      "TRTEDT": 19689.0,
      "TRTP": "Placebo",
      "TRTPN": 5.397605346934028e-79,
      "AGE": 81.0,
      "AGEGR1": ">80",
      "AGEGR1N": 3.0,
      "RACE": "BLACK OR AFRICAN AMERICAN",
      "RACEN": 2.0,
      "SEX": "F",
      "ITTFL": "Y",
      "EFFFL": "Y",
      "COMP24FL": "Y",
      "AVISIT": "Week 8",
      "AVISITN": 8.0,
      "VISIT": "WEEK 8",
      "VISITNUM": 8.0,
      "ADY": 56.0,
      "ADT": 19563.0,
      "PARAMCD": "CIBICVAL",
      "PARAM": "CIBIC Score",
      "PARAMN": 1.0,
      "AVAL": 5.0,
      "ANL01FL": "Y",
      "DTYPE": "",
      "AWRANGE": "2-84",
      "AWTARGET": 56.0,
      "AWTDIFF": 5.397605346934028e-79,
      "AWLO": 2.0,
      "AWHI": 84.0,
      "AWU": "DAYS",
      "QSSEQ": 6001.0
    },
    {
      "STUDYID": "CDISCPILOT01",
      "SITEID": "701",
      "SITEGR1": "701",
      "USUBJID": "01-701-1363",
      "TRTSDT": 19508.0,
      "TRTEDT": 19689.0,
      "TRTP": "Placebo",
      "TRTPN": 5.397605346934028e-79,
      "AGE": 81.0,
      "AGEGR1": ">80",
      "AGEGR1N": 3.0,
      "RACE": "BLACK OR AFRICAN AMERICAN",
      "RACEN": 2.0,
      "SEX": "F",
      "ITTFL": "Y",
      "EFFFL": "Y",
      "COMP24FL": "Y",
      "AVISIT": "Week 16",
      "AVISITN": 16.0,
      "VISIT": "WEEK 16",
      "VISITNUM": 10.0,
      "ADY": 112.0,
      "ADT": 19619.0,
      "PARAMCD": "CIBICVAL",
      "PARAM": "CIBIC Score",
      "PARAMN": 1.0,
      "AVAL": 4.0,
      "ANL01FL": "Y",
      "DTYPE": "",
      "AWRANGE": "85-140",
      "AWTARGET": 112.0,
      "AWTDIFF": 5.397605346934028e-79,
      "AWLO": 85.0,
      "AWHI": 140.0,
      "AWU": "DAYS",
      "QSSEQ": 6002.0
    },
    {
      "STUDYID": "CDISCPILOT01",
      "SITEID": "701",
      "SITEGR1": "701",
      "USUBJID": "01-701-1363",
      "TRTSDT": 19508.0,
      "TRTEDT": 19689.0,
      "TRTP": "Placebo",
      "TRTPN": 5.397605346934028e-79,
      "AGE": 81.0,
      "AGEGR1": ">80",
      "AGEGR1N": 3.0,
      "RACE": "BLACK OR AFRICAN AMERICAN",
      "RACEN": 2.0,
      "SEX": "F",
      "ITTFL": "Y",
      "EFFFL": "Y",
      "COMP24FL": "Y",
      "AVISIT": "Week 24",
      "AVISITN": 24.0,
      "VISIT": "WEEK 24",
      "VISITNUM": 12.0,
      "ADY": 168.0,
      "ADT": 19675.0,
      "PARAMCD": "CIBICVAL",
      "PARAM": "CIBIC Score",
      "PARAMN": 1.0,
      "AVAL": 5.0,
      "ANL01FL": "Y",
      "DTYPE": "",
      "AWRANGE": ">140",
      "AWTARGET": 168.0,
      "AWTDIFF": 5.397605346934028e-79,
      "AWLO": 141.0,
      "AWHI": 220.0,
      "AWU": "DAYS",
      "QSSEQ": 6003.0
    },
    {
      "STUDYID": "CDISCPILOT01",
      "SITEID": "701",
      "SITEGR1": "701",
      "USUBJID": "01-701-1383",
      "TRTSDT": 19393.0,
      "TRTEDT": 19576.0,
      "TRTP": "Xanomeline High Dose",
      "TRTPN": 81.0,
      "AGE": 72.0,
      "AGEGR1": "65-80",
      "AGEGR1N": 2.0,
      "RACE": "WHITE",
      "RACEN": 1.0,
      "SEX": "F",
      "ITTFL": "Y",
      "EFFFL": "Y",
      "COMP24FL": "Y",
      "AVISIT": "Week 8",
      "AVISITN": 8.0,
      "VISIT": "WEEK 8",
      "VISITNUM": 8.0,
      "ADY": 58.0,
      "ADT": 19450.0,
      "PARAMCD": "CIBICVAL",
      "PARAM": "CIBIC Score",
      "PARAMN": 1.0,
      "AVAL": 4.0,
      "ANL01FL": "Y",
      "DTYPE": "",
      "AWRANGE": "2-84",
      "AWTARGET": 56.0,
      "AWTDIFF": 2.0,
      "AWLO": 2.0,
      "AWHI": 84.0,
      "AWU": "DAYS",
      "QSSEQ": 6001.0
    },
    {
      "STUDYID": "CDISCPILOT01",
      "SITEID": "701",
      "SITEGR1": "701",
      "USUBJID": "01-701-1383",
      "TRTSDT": 19393.0,
      "TRTEDT": 19576.0,
      "TRTP": "Xanomeline High Dose",
      "TRTPN": 81.0,
      "AGE": 72.0,
      "AGEGR1": "65-80",
      "AGEGR1N": 2.0,
      "RACE": "WHITE",
      "RACEN": 1.0,
      "SEX": "F",
      "ITTFL": "Y",
      "EFFFL": "Y",
      "COMP24FL": "Y",
      "AVISIT": "Week 16",
      "AVISITN": 16.0,
      "VISIT": "WEEK 16",
      "VISITNUM": 10.0,
      "ADY": 116.0,
      "ADT": 19508.0,
      "PARAMCD": "CIBICVAL",
      "PARAM": "CIBIC Score",
      "PARAMN": 1.0,
      "AVAL": 4.0,
      "ANL01FL": "Y",
      "DTYPE": "",
      "AWRANGE": "85-140",
      "AWTARGET": 112.0,
      "AWTDIFF": 4.0,
      "AWLO": 85.0,
      "AWHI": 140.0,
      "AWU": "DAYS",
      "QSSEQ": 6002.0
    },
    {
      "STUDYID": "CDISCPILOT01",
      "SITEID": "701",
      "SITEGR1": "701",
      "USUBJID": "01-701-1383",
      "TRTSDT": 19393.0,
      "TRTEDT": 19576.0,
      "TRTP": "Xanomeline High Dose",
      "TRTPN": 81.0,
      "AGE": 72.0,
      "AGEGR1": "65-80",
      "AGEGR1N": 2.0,
      "RACE": "WHITE",
      "RACEN": 1.0,
      "SEX": "F",
      "ITTFL": "Y",
      "EFFFL": "Y",
      "COMP24FL": "Y",
      "AVISIT": "Week 24",
      "AVISITN": 24.0,
      "VISIT": "WEEK 24",
      "VISITNUM": 12.0,
      "ADY": 177.0,
      "ADT": 19569.0,
      "PARAMCD": "CIBICVAL",
      "PARAM": "CIBIC Score",
      "PARAMN": 1.0,
      "AVAL": 5.0,
      "ANL01FL": "Y",
      "DTYPE": "",
      "AWRANGE": ">140",
      "AWTARGET": 168.0,
      "AWTDIFF": 9.0,
      "AWLO": 141.0,
      "AWHI": 220.0,
      "AWU": "DAYS",
      "QSSEQ": 6003.0
    },
    {
      "STUDYID": "CDISCPILOT01",
      "SITEID": "701",
      "SITEGR1": "701",
      "USUBJID": "01-701-1387",
      "TRTSDT": 19794.0,
      "TRTEDT": 19807.0,
      "TRTP": "Placebo",
      "TRTPN": 5.397605346934028e-79,
      "AGE": 87.0,
      "AGEGR1": ">80",
      "AGEGR1N": 3.0,
      "RACE": "WHITE",
      "RACEN": 1.0,
      "SEX": "F",
      "ITTFL": "Y",
      "EFFFL": "Y",
      "COMP24FL": "N",
      "AVISIT": "Week 8",
      "AVISITN": 8.0,
      "VISIT": "WEEK 2",
      "VISITNUM": 4.0,
      "ADY": 14.0,
      "ADT": 19807.0,
      "PARAMCD": "CIBICVAL",
      "PARAM": "CIBIC Score",
      "PARAMN": 1.0,
      "AVAL": 3.0,
      "ANL01FL": "Y",
      "DTYPE": "",
      "AWRANGE": "2-84",
      "AWTARGET": 56.0,
      "AWTDIFF": 42.0,
      "AWLO": 2.0,
      "AWHI": 84.0,
      "AWU": "DAYS",
      "QSSEQ": 6001.0
    },
    {
      "STUDYID": "CDISCPILOT01",
      "SITEID": "701",
      "SITEGR1": "701",
      "USUBJID": "01-701-1387",
      "TRTSDT": 19794.0,
      "TRTEDT": 19807.0,
      "TRTP": "Placebo",
      "TRTPN": 5.397605346934028e-79,
      "AGE": 87.0,
      "AGEGR1": ">80",
      "AGEGR1N": 3.0,
      "RACE": "WHITE",
      "RACEN": 1.0,
      "SEX": "F",
      "ITTFL": "Y",
      "EFFFL": "Y",
      "COMP24FL": "N",
      "AVISIT": "Week 16",
      "AVISITN": 16.0,
      "VISIT": "WEEK 2",
      "VISITNUM": 4.0,
      "ADY": 14.0,
      "ADT": 19807.0,
      "PARAMCD": "CIBICVAL",
      "PARAM": "CIBIC Score",
      "PARAMN": 1.0,
      "AVAL": 3.0,
      "ANL01FL": "Y",
      "DTYPE": "LOCF",
      "AWRANGE": "85-140",
      "AWTARGET": 112.0,
      "AWTDIFF": 98.0,
      "AWLO": 85.0,
      "AWHI": 140.0,
      "AWU": "DAYS",
      "QSSEQ": 6001.0
    },
    {
      "STUDYID": "CDISCPILOT01",
      "SITEID": "701",
      "SITEGR1": "701",
      "USUBJID": "01-701-1387",
      "TRTSDT": 19794.0,
      "TRTEDT": 19807.0,
      "TRTP": "Placebo",
      "TRTPN": 5.397605346934028e-79,
      "AGE": 87.0,
      "AGEGR1": ">80",
      "AGEGR1N": 3.0,
      "RACE": "WHITE",
      "RACEN": 1.0,
      "SEX": "F",
      "ITTFL": "Y",
      "EFFFL": "Y",
      "COMP24FL": "N",
      "AVISIT": "Week 24",
      "AVISITN": 24.0,
      "VISIT": "RETRIEVAL",
      "VISITNUM": 201.0,
      "ADY": 169.0,
      "ADT": 19962.0,
      "PARAMCD": "CIBICVAL",
      "PARAM": "CIBIC Score",
      "PARAMN": 1.0,
      "AVAL": 6.0,
      "ANL01FL": "Y",
      "DTYPE": "",
      "AWRANGE": ">140",
      "AWTARGET": 168.0,
      "AWTDIFF": 1.0,
      "AWLO": 141.0,
      "AWHI": 220.0,
      "AWU": "DAYS",
      "QSSEQ": 6002.0
    },
    {
      "STUDYID": "CDISCPILOT01",
      "SITEID": "701",
      "SITEGR1": "701",
      "USUBJID": "01-701-1392",
      "TRTSDT": 19294.0,
      "TRTEDT": 19476.0,
      "TRTP": "Placebo",
      "TRTPN": 5.397605346934028e-79,
      "AGE": 78.0,
      "AGEGR1": "65-80",
      "AGEGR1N": 2.0,
      "RACE": "WHITE",
      "RACEN": 1.0,
      "SEX": "M",
      "ITTFL": "Y",
      "EFFFL": "Y",
      "COMP24FL": "Y",
      "AVISIT": "Week 8",
      "AVISITN": 8.0,
      "VISIT": "WEEK 8",
      "VISITNUM": 8.0,
      "ADY": 54.0,
      "ADT": 19347.0,
      "PARAMCD": "CIBICVAL",
      "PARAM": "CIBIC Score",
      "PARAMN": 1.0,
      "AVAL": 4.0,
      "ANL01FL": "Y",
      "DTYPE": "",
      "AWRANGE": "2-84",
      "AWTARGET": 56.0,
      "AWTDIFF": 2.0,
      "AWLO": 2.0,
      "AWHI": 84.0,
      "AWU": "DAYS",
      "QSSEQ": 6001.0
    },
    {
      "STUDYID": "CDISCPILOT01",
      "SITEID": "701",
      "SITEGR1": "701",
      "USUBJID": "01-701-1392",
      "TRTSDT": 19294.0,
      "TRTEDT": 19476.0,
      "TRTP": "Placebo",
      "TRTPN": 5.397605346934028e-79,
      "AGE": 78.0,
      "AGEGR1": "65-80",
      "AGEGR1N": 2.0,
      "RACE": "WHITE",
      "RACEN": 1.0,
      "SEX": "M",
      "ITTFL": "Y",
      "EFFFL": "Y",
      "COMP24FL": "Y",
      "AVISIT": "Week 16",
      "AVISITN": 16.0,
      "VISIT": "WEEK 16",
      "VISITNUM": 10.0,
      "ADY": 113.0,
      "ADT": 19406.0,
      "PARAMCD": "CIBICVAL",
      "PARAM": "CIBIC Score",
      "PARAMN": 1.0,
      "AVAL": 5.0,
      "ANL01FL": "Y",
      "DTYPE": "",
      "AWRANGE": "85-140",
      "AWTARGET": 112.0,
      "AWTDIFF": 1.0,
      "AWLO": 85.0,
      "AWHI": 140.0,
      "AWU": "DAYS",
      "QSSEQ": 6002.0
    },
    {
      "STUDYID": "CDISCPILOT01",
      "SITEID": "701",
      "SITEGR1": "701",
      "USUBJID": "01-701-1392",
      "TRTSDT": 19294.0,
      "TRTEDT": 19476.0,
      "TRTP": "Placebo",
      "TRTPN": 5.397605346934028e-79,
      "AGE": 78.0,
      "AGEGR1": "65-80",
      "AGEGR1N": 2.0,
      "RACE": "WHITE",
      "RACEN": 1.0,
      "SEX": "M",
      "ITTFL": "Y",
      "EFFFL": "Y",
      "COMP24FL": "Y",
      "AVISIT": "Week 24",
      "AVISITN": 24.0,
      "VISIT": "WEEK 24",
      "VISITNUM": 12.0,
      "ADY": 170.0,
      "ADT": 19463.0,
      "PARAMCD": "CIBICVAL",
      "PARAM": "CIBIC Score",
      "PARAMN": 1.0,
      "AVAL": 4.0,
      "ANL01FL": "Y",
      "DTYPE": "",
      "AWRANGE": ">140",
      "AWTARGET": 168.0,
      "AWTDIFF": 2.0,
      "AWLO": 141.0,
      "AWHI": 220.0,
      "AWU": "DAYS",
      "QSSEQ": 6003.0
    },
    {
      "STUDYID": "CDISCPILOT01",
      "SITEID": "701",
      "SITEGR1": "701",
      "USUBJID": "01-701-1415",
      "TRTSDT": 19624.0,
      "TRTEDT": 19806.0,
      "TRTP": "Placebo",
      "TRTPN": 5.397605346934028e-79,
      "AGE": 85.0,
      "AGEGR1": ">80",
      "AGEGR1N": 3.0,
      "RACE": "WHITE",
      "RACEN": 1.0,
      "SEX": "M",
      "ITTFL": "Y",
      "EFFFL": "Y",
      "COMP24FL": "Y",
      "AVISIT": "Week 8",
      "AVISITN": 8.0,
      "VISIT": "WEEK 8",
      "VISITNUM": 8.0,
      "ADY": 60.0,
      "ADT": 19683.0,
      "PARAMCD": "CIBICVAL",
      "PARAM": "CIBIC Score",
      "PARAMN": 1.0,
      "AVAL": 5.0,
      "ANL01FL": "Y",
      "DTYPE": "",
      "AWRANGE": "2-84",
      "AWTARGET": 56.0,
      "AWTDIFF": 4.0,
      "AWLO": 2.0,
      "AWHI": 84.0,
      "AWU": "DAYS",
      "QSSEQ": 6001.0
    },
    {
      "STUDYID": "CDISCPILOT01",
      "SITEID": "701",
      "SITEGR1": "701",
      "USUBJID": "01-701-1415",
      "TRTSDT": 19624.0,
      "TRTEDT": 19806.0,
      "TRTP": "Placebo",
      "TRTPN": 5.397605346934028e-79,
      "AGE": 85.0,
      "AGEGR1": ">80",
      "AGEGR1N": 3.0,
      "RACE": "WHITE",
      "RACEN": 1.0,
      "SEX": "M",
      "ITTFL": "Y",
      "EFFFL": "Y",
      "COMP24FL": "Y",
      "AVISIT": "Week 16",
      "AVISITN": 16.0,
      "VISIT": "WEEK 16",
      "VISITNUM": 10.0,
      "ADY": 114.0,
      "ADT": 19737.0,
      "PARAMCD": "CIBICVAL",
      "PARAM": "CIBIC Score",
      "PARAMN": 1.0,
      "AVAL": 4.0,
      "ANL01FL": "Y",
      "DTYPE": "",
      "AWRANGE": "85-140",
      "AWTARGET": 112.0,
      "AWTDIFF": 2.0,
      "AWLO": 85.0,
      "AWHI": 140.0,
      "AWU": "DAYS",
      "QSSEQ": 6002.0
    },
    {
      "STUDYID": "CDISCPILOT01",
      "SITEID": "701",
      "SITEGR1": "701",
      "USUBJID": "01-701-1415",
      "TRTSDT": 19624.0,
      "TRTEDT": 19806.0,
      "TRTP": "Placebo",
      "TRTPN": 5.397605346934028e-79,
      "AGE": 85.0,
      "AGEGR1": ">80",
      "AGEGR1N": 3.0,
      "RACE": "WHITE",
      "RACEN": 1.0,
      "SEX": "M",
      "ITTFL": "Y",
      "EFFFL": "Y",
      "COMP24FL": "Y",
      "AVISIT": "Week 24",
      "AVISITN": 24.0,
      "VISIT": "WEEK 24",
      "VISITNUM": 12.0,
      "ADY": 169.0,
      "ADT": 19792.0,
      "PARAMCD": "CIBICVAL",
      "PARAM": "CIBIC Score",
      "PARAMN": 1.0,
      "AVAL": 4.0,
      "ANL01FL": "Y",
      "DTYPE": "",
      "AWRANGE": ">140",
      "AWTARGET": 168.0,
      "AWTDIFF": 1.0,
      "AWLO": 141.0,
      "AWHI": 220.0,
      "AWU": "DAYS",
      "QSSEQ": 6003.0
    },
    {
      "STUDYID": "CDISCPILOT01",
      "SITEID": "701",
      "SITEGR1": "701",
      "USUBJID": "01-701-1429",
      "TRTSDT": 19436.0,
      "TRTEDT": 19478.0,
      "TRTP": "Xanomeline Low Dose",
      "TRTPN": 54.0,
      "AGE": 84.0,
      "AGEGR1": ">80",
      "AGEGR1N": 3.0,
      "RACE": "WHITE",
      "RACEN": 1.0,
      "SEX": "F",
      "ITTFL": "Y",
      "EFFFL": "Y",
      "COMP24FL": "N",
      "AVISIT": "Week 8",
      "AVISITN": 8.0,
      "VISIT": "WEEK 6",
      "VISITNUM": 7.0,
      "ADY": 43.0,
      "ADT": 19478.0,
      "PARAMCD": "CIBICVAL",
      "PARAM": "CIBIC Score",
      "PARAMN": 1.0,
      "AVAL": 3.0,
      "ANL01FL": "Y",
      "DTYPE": "",
      "AWRANGE": "2-84",
      "AWTARGET": 56.0,
      "AWTDIFF": 13.0,
      "AWLO": 2.0,
      "AWHI": 84.0,
      "AWU": "DAYS",
      "QSSEQ": 6001.0
    },
    {
      "STUDYID": "CDISCPILOT01",
      "SITEID": "701",
      "SITEGR1": "701",
      "USUBJID": "01-701-1429",
      "TRTSDT": 19436.0,
      "TRTEDT": 19478.0,
      "TRTP": "Xanomeline Low Dose",
      "TRTPN": 54.0,
      "AGE": 84.0,
      "AGEGR1": ">80",
      "AGEGR1N": 3.0,
      "RACE": "WHITE",
      "RACEN": 1.0,
      "SEX": "F",
      "ITTFL": "Y",
      "EFFFL": "Y",
      "COMP24FL": "N",
      "AVISIT": "Week 16",
      "AVISITN": 16.0,
      "VISIT": "WEEK 6",
      "VISITNUM": 7.0,
      "ADY": 43.0,
      "ADT": 19478.0,
      "PARAMCD": "CIBICVAL",
      "PARAM": "CIBIC Score",
      "PARAMN": 1.0,
      "AVAL": 3.0,
      "ANL01FL": "Y",
      "DTYPE": "LOCF",
      "AWRANGE": "85-140",
      "AWTARGET": 112.0,
      "AWTDIFF": 69.0,
      "AWLO": 85.0,
      "AWHI": 140.0,
      "AWU": "DAYS",
      "QSSEQ": 6001.0
    },
    {
      "STUDYID": "CDISCPILOT01",
      "SITEID": "701",
      "SITEGR1": "701",
      "USUBJID": "01-701-1429",
      "TRTSDT": 19436.0,
      "TRTEDT": 19478.0,
      "TRTP": "Xanomeline Low Dose",
      "TRTPN": 54.0,
      "AGE": 84.0,
      "AGEGR1": ">80",
      "AGEGR1N": 3.0,
      "RACE": "WHITE",
      "RACEN": 1.0,
      "SEX": "F",
      "ITTFL": "Y",
      "EFFFL": "Y",
      "COMP24FL": "N",
      "AVISIT": "Week 24",
      "AVISITN": 24.0,
      "VISIT": "WEEK 6",
      "VISITNUM": 7.0,
      "ADY": 43.0,
      "ADT": 19478.0,
      "PARAMCD": "CIBICVAL",
      "PARAM": "CIBIC Score",
      "PARAMN": 1.0,
      "AVAL": 3.0,
      "ANL01FL": "Y",
      "DTYPE": "LOCF",
      "AWRANGE": ">140",
      "AWTARGET": 168.0,
      "AWTDIFF": 125.0,
      "AWLO": 141.0,
      "AWHI": 220.0,
      "AWU": "DAYS",
      "QSSEQ": 6001.0
    },
    {
      "STUDYID": "CDISCPILOT01",
      "SITEID": "701",
      "SITEGR1": "701",
      "USUBJID": "01-701-1440",
      "TRTSDT": 19578.0,
      "TRTEDT": 19759.0,
      "TRTP": "Placebo",
      "TRTPN": 5.397605346934028e-79,
      "AGE": 70.0,
      "AGEGR1": "65-80",
      "AGEGR1N": 2.0,
      "RACE": "WHITE",
      "RACEN": 1.0,
      "SEX": "M",
      "ITTFL": "Y",
      "EFFFL": "Y",
      "COMP24FL": "Y",
      "AVISIT": "Week 8",
      "AVISITN": 8.0,
      "VISIT": "WEEK 8",
      "VISITNUM": 8.0,
      "ADY": 57.0,
      "ADT": 19634.0,
      "PARAMCD": "CIBICVAL",
      "PARAM": "CIBIC Score",
      "PARAMN": 1.0,
      "AVAL": 3.0,
      "ANL01FL": "Y",
      "DTYPE": "",
      "AWRANGE": "2-84",
      "AWTARGET": 56.0,
      "AWTDIFF": 1.0,
      "AWLO": 2.0,
      "AWHI": 84.0,
      "AWU": "DAYS",
      "QSSEQ": 6001.0
    },
    {
      "STUDYID": "CDISCPILOT01",
      "SITEID": "701",
      "SITEGR1": "701",
      "USUBJID": "01-701-1440",
      "TRTSDT": 19578.0,
      "TRTEDT": 19759.0,
      "TRTP": "Placebo",
      "TRTPN": 5.397605346934028e-79,
      "AGE": 70.0,
      "AGEGR1": "65-80",
      "AGEGR1N": 2.0,
      "RACE": "WHITE",
      "RACEN": 1.0,
      "SEX": "M",
      "ITTFL": "Y",
      "EFFFL": "Y",
      "COMP24FL": "Y",
      "AVISIT": "Week 16",
      "AVISITN": 16.0,
      "VISIT": "WEEK 16",
      "VISITNUM": 10.0,
      "ADY": 112.0,
      "ADT": 19689.0,
      "PARAMCD": "CIBICVAL",
      "PARAM": "CIBIC Score",
      "PARAMN": 1.0,
      "AVAL": 5.0,
      "ANL01FL": "Y",
      "DTYPE": "",
      "AWRANGE": "85-140",
      "AWTARGET": 112.0,
      "AWTDIFF": 5.397605346934028e-79,
      "AWLO": 85.0,
      "AWHI": 140.0,
      "AWU": "DAYS",
      "QSSEQ": 6002.0
    },
    {
      "STUDYID": "CDISCPILOT01",
      "SITEID": "701",
      "SITEGR1": "701",
      "USUBJID": "01-701-1440",
      "TRTSDT": 19578.0,
      "TRTEDT": 19759.0,
      "TRTP": "Placebo",
      "TRTPN": 5.397605346934028e-79,
      "AGE": 70.0,
      "AGEGR1": "65-80",
      "AGEGR1N": 2.0,
      "RACE": "WHITE",
      "RACEN": 1.0,
      "SEX": "M",
      "ITTFL": "Y",
      "EFFFL": "Y",
      "COMP24FL": "Y",
      "AVISIT": "Week 24",
      "AVISITN": 24.0,
      "VISIT": "WEEK 24",
      "VISITNUM": 12.0,
      "ADY": 168.0,
      "ADT": 19745.0,
      "PARAMCD": "CIBICVAL",
      "PARAM": "CIBIC Score",
      "PARAMN": 1.0,
      "AVAL": 5.0,
      "ANL01FL": "Y",
      "DTYPE": "",
      "AWRANGE": ">140",
      "AWTARGET": 168.0,
      "AWTDIFF": 5.397605346934028e-79,
      "AWLO": 141.0,
      "AWHI": 220.0,
      "AWU": "DAYS",
      "QSSEQ": 6003.0
    },
    {
      "STUDYID": "CDISCPILOT01",
      "SITEID": "701",
      "SITEGR1": "701",
      "USUBJID": "01-701-1442",
      "TRTSDT": 19657.0,
      "TRTEDT": 19839.0,
      "TRTP": "Xanomeline Low Dose",
      "TRTPN": 54.0,
      "AGE": 57.0,
      "AGEGR1": "<65",
      "AGEGR1N": 1.0,
      "RACE": "BLACK OR AFRICAN AMERICAN",
      "RACEN": 2.0,
      "SEX": "F",
      "ITTFL": "Y",
      "EFFFL": "Y",
      "COMP24FL": "Y",
      "AVISIT": "Week 8",
      "AVISITN": 8.0,
      "VISIT": "WEEK 8",
      "VISITNUM": 8.0,
      "ADY": 62.0,
      "ADT": 19718.0,
      "PARAMCD": "CIBICVAL",
      "PARAM": "CIBIC Score",
      "PARAMN": 1.0,
      "AVAL": 4.0,
      "ANL01FL": "Y",
      "DTYPE": "",
      "AWRANGE": "2-84",
      "AWTARGET": 56.0,
      "AWTDIFF": 6.0,
      "AWLO": 2.0,
      "AWHI": 84.0,
      "AWU": "DAYS",
      "QSSEQ": 6001.0
    },
    {
      "STUDYID": "CDISCPILOT01",
      "SITEID": "701",
      "SITEGR1": "701",
      "USUBJID": "01-701-1442",
      "TRTSDT": 19657.0,
      "TRTEDT": 19839.0,
      "TRTP": "Xanomeline Low Dose",
      "TRTPN": 54.0,
      "AGE": 57.0,
      "AGEGR1": "<65",
      "AGEGR1N": 1.0,
      "RACE": "BLACK OR AFRICAN AMERICAN",
      "RACEN": 2.0,
      "SEX": "F",
      "ITTFL": "Y",
      "EFFFL": "Y",
      "COMP24FL": "Y",
      "AVISIT": "Week 16",
      "AVISITN": 16.0,
      "VISIT": "WEEK 16",
      "VISITNUM": 10.0,
      "ADY": 113.0,
      "ADT": 19769.0,
      "PARAMCD": "CIBICVAL",
      "PARAM": "CIBIC Score",
      "PARAMN": 1.0,
      "AVAL": 4.0,
      "ANL01FL": "Y",
      "DTYPE": "",
      "AWRANGE": "85-140",
      "AWTARGET": 112.0,
      "AWTDIFF": 1.0,
      "AWLO": 85.0,
      "AWHI": 140.0,
      "AWU": "DAYS",
      "QSSEQ": 6002.0
    },
    {
      "STUDYID": "CDISCPILOT01",
      "SITEID": "701",
      "SITEGR1": "701",
      "USUBJID": "01-701-1442",
      "TRTSDT": 19657.0,
      "TRTEDT": 19839.0,
      "TRTP": "Xanomeline Low Dose",
      "TRTPN": 54.0,
      "AGE": 57.0,
      "AGEGR1": "<65",
      "AGEGR1N": 1.0,
      "RACE": "BLACK OR AFRICAN AMERICAN",
      "RACEN": 2.0,
      "SEX": "F",
      "ITTFL": "Y",
      "EFFFL": "Y",
      "COMP24FL": "Y",
      "AVISIT": "Week 24",
      "AVISITN": 24.0,
      "VISIT": "WEEK 24",
      "VISITNUM": 12.0,
      "ADY": 174.0,
      "ADT": 19830.0,
      "PARAMCD": "CIBICVAL",
      "PARAM": "CIBIC Score",
      "PARAMN": 1.0,
      "AVAL": 4.0,
      "ANL01FL": "Y",
      "DTYPE": "",
      "AWRANGE": ">140",
      "AWTARGET": 168.0,
      "AWTDIFF": 6.0,
      "AWLO": 141.0,
      "AWHI": 220.0,
      "AWU": "DAYS",
      "QSSEQ": 6003.0
    },
    {
      "STUDYID": "CDISCPILOT01",
      "SITEID": "701",
      "SITEGR1": "701",
      "USUBJID": "01-701-1444",
      "TRTSDT": 19363.0,
      "TRTEDT": 19401.0,
      "TRTP": "Xanomeline High Dose",
      "TRTPN": 81.0,
      "AGE": 63.0,
      "AGEGR1": "<65",
      "AGEGR1N": 1.0,
      "RACE": "WHITE",
      "RACEN": 1.0,
      "SEX": "M",
      "ITTFL": "Y",
      "EFFFL": "Y",
      "COMP24FL": "N",
      "AVISIT": "Week 8",
      "AVISITN": 8.0,
      "VISIT": "WEEK 6",
      "VISITNUM": 7.0,
      "ADY": 40.0,
      "ADT": 19402.0,
      "PARAMCD": "CIBICVAL",
      "PARAM": "CIBIC Score",
      "PARAMN": 1.0,
      "AVAL": 5.0,
      "ANL01FL": "Y",
      "DTYPE": "",
      "AWRANGE": "2-84",
      "AWTARGET": 56.0,
      "AWTDIFF": 16.0,
      "AWLO": 2.0,
      "AWHI": 84.0,
      "AWU": "DAYS",
      "QSSEQ": 6001.0
    },
    {
      "STUDYID": "CDISCPILOT01",
      "SITEID": "701",
      "SITEGR1": "701",
      "USUBJID": "01-701-1444",
      "TRTSDT": 19363.0,
      "TRTEDT": 19401.0,
      "TRTP": "Xanomeline High Dose",
      "TRTPN": 81.0,
      "AGE": 63.0,
      "AGEGR1": "<65",
      "AGEGR1N": 1.0,
      "RACE": "WHITE",
      "RACEN": 1.0,
      "SEX": "M",
      "ITTFL": "Y",
      "EFFFL": "Y",
      "COMP24FL": "N",
      "AVISIT": "Week 16",
      "AVISITN": 16.0,
      "VISIT": "WEEK 6",
      "VISITNUM": 7.0,
      "ADY": 40.0,
      "ADT": 19402.0,
      "PARAMCD": "CIBICVAL",
      "PARAM": "CIBIC Score",
      "PARAMN": 1.0,
      "AVAL": 5.0,
      "ANL01FL": "Y",
      "DTYPE": "LOCF",
      "AWRANGE": "85-140",
      "AWTARGET": 112.0,
      "AWTDIFF": 72.0,
      "AWLO": 85.0,
      "AWHI": 140.0,
      "AWU": "DAYS",
      "QSSEQ": 6001.0
    },
    {
      "STUDYID": "CDISCPILOT01",
      "SITEID": "701",
      "SITEGR1": "701",
      "USUBJID": "01-701-1444",
      "TRTSDT": 19363.0,
      "TRTEDT": 19401.0,
      "TRTP": "Xanomeline High Dose",
      "TRTPN": 81.0,
      "AGE": 63.0,
      "AGEGR1": "<65",
      "AGEGR1N": 1.0,
      "RACE": "WHITE",
      "RACEN": 1.0,
      "SEX": "M",
      "ITTFL": "Y",
      "EFFFL": "Y",
      "COMP24FL": "N",
      "AVISIT": "Week 24",
      "AVISITN": 24.0,
      "VISIT": "RETRIEVAL",
      "VISITNUM": 201.0,
      "ADY": 167.0,
      "ADT": 19529.0,
      "PARAMCD": "CIBICVAL",
      "PARAM": "CIBIC Score",
      "PARAMN": 1.0,
      "AVAL": 5.0,
      "ANL01FL": "Y",
      "DTYPE": "",
      "AWRANGE": ">140",
      "AWTARGET": 168.0,
      "AWTDIFF": 1.0,
      "AWLO": 141.0,
      "AWHI": 220.0,
      "AWU": "DAYS",
      "QSSEQ": 6002.0
    },
    {
      "STUDYID": "CDISCPILOT01",
      "SITEID": "702",
      "SITEGR1": "900",
      "USUBJID": "01-702-1082",
      "TRTSDT": 19565.0,
      "TRTEDT": 19644.0,
      "TRTP": "Xanomeline Low Dose",
      "TRTPN": 54.0,
      "AGE": 84.0,
      "AGEGR1": ">80",
      "AGEGR1N": 3.0,
      "RACE": "WHITE",
      "RACEN": 1.0,
      "SEX": "F",
      "ITTFL": "Y",
      "EFFFL": "Y",
      "COMP24FL": "N",
      "AVISIT": "Week 8",
      "AVISITN": 8.0,
      "VISIT": "WEEK 8",
      "VISITNUM": 8.0,
      "ADY": 65.0,
      "ADT": 19629.0,
      "PARAMCD": "CIBICVAL",
      "PARAM": "CIBIC Score",
      "PARAMN": 1.0,
      "AVAL": 4.0,
      "ANL01FL": "Y",
      "DTYPE": "",
      "AWRANGE": "2-84",
      "AWTARGET": 56.0,
      "AWTDIFF": 9.0,
      "AWLO": 2.0,
      "AWHI": 84.0,
      "AWU": "DAYS",
      "QSSEQ": 6001.0
    },
    {
      "STUDYID": "CDISCPILOT01",
      "SITEID": "702",
      "SITEGR1": "900",
      "USUBJID": "01-702-1082",
      "TRTSDT": 19565.0,
      "TRTEDT": 19644.0,
      "TRTP": "Xanomeline Low Dose",
      "TRTPN": 54.0,
      "AGE": 84.0,
      "AGEGR1": ">80",
      "AGEGR1N": 3.0,
      "RACE": "WHITE",
      "RACEN": 1.0,
      "SEX": "F",
      "ITTFL": "Y",
      "EFFFL": "Y",
      "COMP24FL": "N",
      "AVISIT": "Week 16",
      "AVISITN": 16.0,
      "VISIT": "WEEK 12",
      "VISITNUM": 9.0,
      "ADY": 115.0,
      "ADT": 19679.0,
      "PARAMCD": "CIBICVAL",
      "PARAM": "CIBIC Score",
      "PARAMN": 1.0,
      "AVAL": 4.0,
      "ANL01FL": "Y",
      "DTYPE": "",
      "AWRANGE": "85-140",
      "AWTARGET": 112.0,
      "AWTDIFF": 3.0,
      "AWLO": 85.0,
      "AWHI": 140.0,
      "AWU": "DAYS",
      "QSSEQ": 6002.0
    },
    {
      "STUDYID": "CDISCPILOT01",
      "SITEID": "702",
      "SITEGR1": "900",
      "USUBJID": "01-702-1082",
      "TRTSDT": 19565.0,
      "TRTEDT": 19644.0,
      "TRTP": "Xanomeline Low Dose",
      "TRTPN": 54.0,
      "AGE": 84.0,
      "AGEGR1": ">80",
      "AGEGR1N": 3.0,
      "RACE": "WHITE",
      "RACEN": 1.0,
      "SEX": "F",
      "ITTFL": "Y",
      "EFFFL": "Y",
      "COMP24FL": "N",
      "AVISIT": "Week 24",
      "AVISITN": 24.0,
      "VISIT": "WEEK 12",
      "VISITNUM": 9.0,
      "ADY": 115.0,
      "ADT": 19679.0,
      "PARAMCD": "CIBICVAL",
      "PARAM": "CIBIC Score",
      "PARAMN": 1.0,
      "AVAL": 4.0,
      "ANL01FL": "Y",
      "DTYPE": "LOCF",
      "AWRANGE": ">140",
      "AWTARGET": 168.0,
      "AWTDIFF": 53.0,
      "AWLO": 141.0,
      "AWHI": 220.0,
      "AWU": "DAYS",
      "QSSEQ": 6002.0
    },
    {
      "STUDYID": "CDISCPILOT01",
      "SITEID": "703",
      "SITEGR1": "703",
      "USUBJID": "01-703-1042",
      "TRTSDT": 19419.0,
      "TRTEDT": 19601.0,
      "TRTP": "Placebo",
      "TRTPN": 5.397605346934028e-79,
      "AGE": 64.0,
      "AGEGR1": "<65",
      "AGEGR1N": 1.0,
      "RACE": "WHITE",
      "RACEN": 1.0,
      "SEX": "M",
      "ITTFL": "Y",
      "EFFFL": "Y",
      "COMP24FL": "Y",
      "AVISIT": "Week 16",
      "AVISITN": 16.0,
      "VISIT": "WEEK 16",
      "VISITNUM": 10.0,
      "ADY": 113.0,
      "ADT": 19531.0,
      "PARAMCD": "CIBICVAL",
      "PARAM": "CIBIC Score",
      "PARAMN": 1.0,
      "AVAL": 4.0,
      "ANL01FL": "Y",
      "DTYPE": "",
      "AWRANGE": "85-140",
      "AWTARGET": 112.0,
      "AWTDIFF": 1.0,
      "AWLO": 85.0,
      "AWHI": 140.0,
      "AWU": "DAYS",
      "QSSEQ": 6001.0
    },
    {
      "STUDYID": "CDISCPILOT01",
      "SITEID": "703",
      "SITEGR1": "703",
      "USUBJID": "01-703-1042",
      "TRTSDT": 19419.0,
      "TRTEDT": 19601.0,
      "TRTP": "Placebo",
      "TRTPN": 5.397605346934028e-79,
      "AGE": 64.0,
      "AGEGR1": "<65",
      "AGEGR1N": 1.0,
      "RACE": "WHITE",
      "RACEN": 1.0,
      "SEX": "M",
      "ITTFL": "Y",
      "EFFFL": "Y",
      "COMP24FL": "Y",
      "AVISIT": "Week 24",
      "AVISITN": 24.0,
      "VISIT": "WEEK 24",
      "VISITNUM": 12.0,
      "ADY": 161.0,
      "ADT": 19579.0,
      "PARAMCD": "CIBICVAL",
      "PARAM": "CIBIC Score",
      "PARAMN": 1.0,
      "AVAL": 4.0,
      "ANL01FL": "Y",
      "DTYPE": "",
      "AWRANGE": ">140",
      "AWTARGET": 168.0,
      "AWTDIFF": 7.0,
      "AWLO": 141.0,
      "AWHI": 220.0,
      "AWU": "DAYS",
      "QSSEQ": 6002.0
    },
    {
      "STUDYID": "CDISCPILOT01",
      "SITEID": "703",
      "SITEGR1": "703",
      "USUBJID": "01-703-1076",
      "TRTSDT": 19656.0,
      "TRTEDT": 19716.0,
      "TRTP": "Xanomeline High Dose",
      "TRTPN": 81.0,
      "AGE": 69.0,
      "AGEGR1": "65-80",
      "AGEGR1N": 2.0,
      "RACE": "WHITE",
      "RACEN": 1.0,
      "SEX": "M",
      "ITTFL": "Y",
      "EFFFL": "Y",
      "COMP24FL": "N",
      "AVISIT": "Week 8",
      "AVISITN": 8.0,
      "VISIT": "WEEK 8",
      "VISITNUM": 8.0,
      "ADY": 54.0,
      "ADT": 19709.0,
      "PARAMCD": "CIBICVAL",
      "PARAM": "CIBIC Score",
      "PARAMN": 1.0,
      "AVAL": 3.0,
      "ANL01FL": "Y",
      "DTYPE": "",
      "AWRANGE": "2-84",
      "AWTARGET": 56.0,
      "AWTDIFF": 2.0,
      "AWLO": 2.0,
      "AWHI": 84.0,
      "AWU": "DAYS",
      "QSSEQ": 6001.0
    },
    {
      "STUDYID": "CDISCPILOT01",
      "SITEID": "703",
      "SITEGR1": "703",
      "USUBJID": "01-703-1076",
      "TRTSDT": 19656.0,
      "TRTEDT": 19716.0,
      "TRTP": "Xanomeline High Dose",
      "TRTPN": 81.0,
      "AGE": 69.0,
      "AGEGR1": "65-80",
      "AGEGR1N": 2.0,
      "RACE": "WHITE",
      "RACEN": 1.0,
      "SEX": "M",
      "ITTFL": "Y",
      "EFFFL": "Y",
      "COMP24FL": "N",
      "AVISIT": "Week 8",
      "AVISITN": 8.0,
      "VISIT": "WEEK 12",
      "VISITNUM": 9.0,
      "ADY": 61.0,
      "ADT": 19716.0,
      "PARAMCD": "CIBICVAL",
      "PARAM": "CIBIC Score",
      "PARAMN": 1.0,
      "AVAL": 3.0,
      "ANL01FL": "",
      "DTYPE": "",
      "AWRANGE": "2-84",
      "AWTARGET": 56.0,
      "AWTDIFF": 5.0,
      "AWLO": 2.0,
      "AWHI": 84.0,
      "AWU": "DAYS",
      "QSSEQ": 6002.0
    },
    {
      "STUDYID": "CDISCPILOT01",
      "SITEID": "703",
      "SITEGR1": "703",
      "USUBJID": "01-703-1076",
      "TRTSDT": 19656.0,
      "TRTEDT": 19716.0,
      "TRTP": "Xanomeline High Dose",
      "TRTPN": 81.0,
      "AGE": 69.0,
      "AGEGR1": "65-80",
      "AGEGR1N": 2.0,
      "RACE": "WHITE",
      "RACEN": 1.0,
      "SEX": "M",
      "ITTFL": "Y",
      "EFFFL": "Y",
      "COMP24FL": "N",
      "AVISIT": "Week 16",
      "AVISITN": 16.0,
      "VISIT": "WEEK 12",
      "VISITNUM": 9.0,
      "ADY": 61.0,
      "ADT": 19716.0,
      "PARAMCD": "CIBICVAL",
      "PARAM": "CIBIC Score",
      "PARAMN": 1.0,
      "AVAL": 3.0,
      "ANL01FL": "Y",
      "DTYPE": "LOCF",
      "AWRANGE": "85-140",
      "AWTARGET": 112.0,
      "AWTDIFF": 51.0,
      "AWLO": 85.0,
      "AWHI": 140.0,
      "AWU": "DAYS",
      "QSSEQ": 6002.0
    },
    {
      "STUDYID": "CDISCPILOT01",
      "SITEID": "703",
      "SITEGR1": "703",
      "USUBJID": "01-703-1076",
      "TRTSDT": 19656.0,
      "TRTEDT": 19716.0,
      "TRTP": "Xanomeline High Dose",
      "TRTPN": 81.0,
      "AGE": 69.0,
      "AGEGR1": "65-80",
      "AGEGR1N": 2.0,
      "RACE": "WHITE",
      "RACEN": 1.0,
      "SEX": "M",
      "ITTFL": "Y",
      "EFFFL": "Y",
      "COMP24FL": "N",
      "AVISIT": "Week 24",
      "AVISITN": 24.0,
      "VISIT": "WEEK 12",
      "VISITNUM": 9.0,
      "ADY": 61.0,
      "ADT": 19716.0,
      "PARAMCD": "CIBICVAL",
      "PARAM": "CIBIC Score",
      "PARAMN": 1.0,
      "AVAL": 3.0,
      "ANL01FL": "Y",
      "DTYPE": "LOCF",
      "AWRANGE": ">140",
      "AWTARGET": 168.0,
      "AWTDIFF": 107.0,
      "AWLO": 141.0,
      "AWHI": 220.0,
      "AWU": "DAYS",
      "QSSEQ": 6002.0
    },
    {
      "STUDYID": "CDISCPILOT01",
      "SITEID": "703",
      "SITEGR1": "703",
      "USUBJID": "01-703-1086",
      "TRTSDT": 19238.0,
      "TRTEDT": 19331.0,
      "TRTP": "Xanomeline Low Dose",
      "TRTPN": 54.0,
      "AGE": 71.0,
      "AGEGR1": "65-80",
      "AGEGR1N": 2.0,
      "RACE": "WHITE",
      "RACEN": 1.0,
      "SEX": "M",
      "ITTFL": "Y",
      "EFFFL": "Y",
      "COMP24FL": "N",
      "AVISIT": "Week 8",
      "AVISITN": 8.0,
      "VISIT": "WEEK 8",
      "VISITNUM": 8.0,
      "ADY": 56.0,
      "ADT": 19293.0,
      "PARAMCD": "CIBICVAL",
      "PARAM": "CIBIC Score",
      "PARAMN": 1.0,
      "AVAL": 3.0,
      "ANL01FL": "Y",
      "DTYPE": "",
      "AWRANGE": "2-84",
      "AWTARGET": 56.0,
      "AWTDIFF": 5.397605346934028e-79,
      "AWLO": 2.0,
      "AWHI": 84.0,
      "AWU": "DAYS",
      "QSSEQ": 6001.0
    },
    {
      "STUDYID": "CDISCPILOT01",
      "SITEID": "703",
      "SITEGR1": "703",
      "USUBJID": "01-703-1086",
      "TRTSDT": 19238.0,
      "TRTEDT": 19331.0,
      "TRTP": "Xanomeline Low Dose",
      "TRTPN": 54.0,
      "AGE": 71.0,
      "AGEGR1": "65-80",
      "AGEGR1N": 2.0,
      "RACE": "WHITE",
      "RACEN": 1.0,
      "SEX": "M",
      "ITTFL": "Y",
      "EFFFL": "Y",
      "COMP24FL": "N",
      "AVISIT": "Week 16",
      "AVISITN": 16.0,
      "VISIT": "WEEK 16",
      "VISITNUM": 10.0,
      "ADY": 114.0,
      "ADT": 19351.0,
      "PARAMCD": "CIBICVAL",
      "PARAM": "CIBIC Score",
      "PARAMN": 1.0,
      "AVAL": 3.0,
      "ANL01FL": "Y",
      "DTYPE": "",
      "AWRANGE": "85-140",
      "AWTARGET": 112.0,
      "AWTDIFF": 2.0,
      "AWLO": 85.0,
      "AWHI": 140.0,
      "AWU": "DAYS",
      "QSSEQ": 6002.0
    },
    {
      "STUDYID": "CDISCPILOT01",
      "SITEID": "703",
      "SITEGR1": "703",
      "USUBJID": "01-703-1086",
      "TRTSDT": 19238.0,
      "TRTEDT": 19331.0,
      "TRTP": "Xanomeline Low Dose",
      "TRTPN": 54.0,
      "AGE": 71.0,
      "AGEGR1": "65-80",
      "AGEGR1N": 2.0,
      "RACE": "WHITE",
      "RACEN": 1.0,
      "SEX": "M",
      "ITTFL": "Y",
      "EFFFL": "Y",
      "COMP24FL": "N",
      "AVISIT": "Week 24",
      "AVISITN": 24.0,
      "VISIT": "RETRIEVAL",
      "VISITNUM": 201.0,
      "ADY": 206.0,
      "ADT": 19443.0,
      "PARAMCD": "CIBICVAL",
      "PARAM": "CIBIC Score",
      "PARAMN": 1.0,
      "AVAL": 3.0,
      "ANL01FL": "Y",
      "DTYPE": "",
      "AWRANGE": ">140",
      "AWTARGET": 168.0,
      "AWTDIFF": 38.0,
      "AWLO": 141.0,
      "AWHI": 220.0,
      "AWU": "DAYS",
      "QSSEQ": 6003.0
    },
    {
      "STUDYID": "CDISCPILOT01",
      "SITEID": "703",
      "SITEGR1": "703",
      "USUBJID": "01-703-1100",
      "TRTSDT": 19430.0,
      "TRTEDT": 19615.0,
      "TRTP": "Placebo",
      "TRTPN": 5.397605346934028e-79,
      "AGE": 84.0,
      "AGEGR1": ">80",
      "AGEGR1N": 3.0,
      "RACE": "WHITE",
      "RACEN": 1.0,
      "SEX": "F",
      "ITTFL": "Y",
      "EFFFL": "Y",
      "COMP24FL": "Y",
      "AVISIT": "Week 8",
      "AVISITN": 8.0,
      "VISIT": "WEEK 8",
      "VISITNUM": 8.0,
      "ADY": 57.0,
      "ADT": 19486.0,
      "PARAMCD": "CIBICVAL",
      "PARAM": "CIBIC Score",
      "PARAMN": 1.0,
      "AVAL": 4.0,
      "ANL01FL": "Y",
      "DTYPE": "",
      "AWRANGE": "2-84",
      "AWTARGET": 56.0,
      "AWTDIFF": 1.0,
      "AWLO": 2.0,
      "AWHI": 84.0,
      "AWU": "DAYS",
      "QSSEQ": 6001.0
    },
    {
      "STUDYID": "CDISCPILOT01",
      "SITEID": "703",
      "SITEGR1": "703",
      "USUBJID": "01-703-1100",
      "TRTSDT": 19430.0,
      "TRTEDT": 19615.0,
      "TRTP": "Placebo",
      "TRTPN": 5.397605346934028e-79,
      "AGE": 84.0,
      "AGEGR1": ">80",
      "AGEGR1N": 3.0,
      "RACE": "WHITE",
      "RACEN": 1.0,
      "SEX": "F",
      "ITTFL": "Y",
      "EFFFL": "Y",
      "COMP24FL": "Y",
      "AVISIT": "Week 16",
      "AVISITN": 16.0,
      "VISIT": "WEEK 16",
      "VISITNUM": 10.0,
      "ADY": 113.0,
      "ADT": 19542.0,
      "PARAMCD": "CIBICVAL",
      "PARAM": "CIBIC Score",
      "PARAMN": 1.0,
      "AVAL": 4.0,
      "ANL01FL": "Y",
      "DTYPE": "",
      "AWRANGE": "85-140",
      "AWTARGET": 112.0,
      "AWTDIFF": 1.0,
      "AWLO": 85.0,
      "AWHI": 140.0,
      "AWU": "DAYS",
      "QSSEQ": 6002.0
    },
    {
      "STUDYID": "CDISCPILOT01",
      "SITEID": "703",
      "SITEGR1": "703",
      "USUBJID": "01-703-1100",
      "TRTSDT": 19430.0,
      "TRTEDT": 19615.0,
      "TRTP": "Placebo",
      "TRTPN": 5.397605346934028e-79,
      "AGE": 84.0,
      "AGEGR1": ">80",
      "AGEGR1N": 3.0,
      "RACE": "WHITE",
      "RACEN": 1.0,
      "SEX": "F",
      "ITTFL": "Y",
      "EFFFL": "Y",
      "COMP24FL": "Y",
      "AVISIT": "Week 24",
      "AVISITN": 24.0,
      "VISIT": "WEEK 24",
      "VISITNUM": 12.0,
      "ADY": 169.0,
      "ADT": 19598.0,
      "PARAMCD": "CIBICVAL",
      "PARAM": "CIBIC Score",
      "PARAMN": 1.0,
      "AVAL": 5.0,
      "ANL01FL": "Y",
      "DTYPE": "",
      "AWRANGE": ">140",
      "AWTARGET": 168.0,
      "AWTDIFF": 1.0,
      "AWLO": 141.0,
      "AWHI": 220.0,
      "AWU": "DAYS",
      "QSSEQ": 6003.0
    },
    {
      "STUDYID": "CDISCPILOT01",
      "SITEID": "703",
      "SITEGR1": "703",
      "USUBJID": "01-703-1119",
      "TRTSDT": 19409.0,
      "TRTEDT": 19522.0,
      "TRTP": "Xanomeline Low Dose",
      "TRTPN": 54.0,
      "AGE": 81.0,
      "AGEGR1": ">80",
      "AGEGR1N": 3.0,
      "RACE": "WHITE",
      "RACEN": 1.0,
      "SEX": "F",
      "ITTFL": "Y",
      "EFFFL": "Y",
      "COMP24FL": "N",
      "AVISIT": "Week 8",
      "AVISITN": 8.0,
      "VISIT": "WEEK 8",
      "VISITNUM": 8.0,
      "ADY": 59.0,
      "ADT": 19467.0,
      "PARAMCD": "CIBICVAL",
      "PARAM": "CIBIC Score",
      "PARAMN": 1.0,
      "AVAL": 4.0,
      "ANL01FL": "Y",
      "DTYPE": "",
      "AWRANGE": "2-84",
      "AWTARGET": 56.0,
      "AWTDIFF": 3.0,
      "AWLO": 2.0,
      "AWHI": 84.0,
      "AWU": "DAYS",
      "QSSEQ": 6001.0
    },
    {
      "STUDYID": "CDISCPILOT01",
      "SITEID": "703",
      "SITEGR1": "703",
      "USUBJID": "01-703-1119",
      "TRTSDT": 19409.0,
      "TRTEDT": 19522.0,
      "TRTP": "Xanomeline Low Dose",
      "TRTPN": 54.0,
      "AGE": 81.0,
      "AGEGR1": ">80",
      "AGEGR1N": 3.0,
      "RACE": "WHITE",
      "RACEN": 1.0,
      "SEX": "F",
      "ITTFL": "Y",
      "EFFFL": "Y",
      "COMP24FL": "N",
      "AVISIT": "Week 16",
      "AVISITN": 16.0,
      "VISIT": "WEEK 16",
      "VISITNUM": 10.0,
      "ADY": 114.0,
      "ADT": 19522.0,
      "PARAMCD": "CIBICVAL",
      "PARAM": "CIBIC Score",
      "PARAMN": 1.0,
      "AVAL": 5.0,
      "ANL01FL": "Y",
      "DTYPE": "",
      "AWRANGE": "85-140",
      "AWTARGET": 112.0,
      "AWTDIFF": 2.0,
      "AWLO": 85.0,
      "AWHI": 140.0,
      "AWU": "DAYS",
      "QSSEQ": 6002.0
    },
    {
      "STUDYID": "CDISCPILOT01",
      "SITEID": "703",
      "SITEGR1": "703",
      "USUBJID": "01-703-1119",
      "TRTSDT": 19409.0,
      "TRTEDT": 19522.0,
      "TRTP": "Xanomeline Low Dose",
      "TRTPN": 54.0,
      "AGE": 81.0,
      "AGEGR1": ">80",
      "AGEGR1N": 3.0,
      "RACE": "WHITE",
      "RACEN": 1.0,
      "SEX": "F",
      "ITTFL": "Y",
      "EFFFL": "Y",
      "COMP24FL": "N",
      "AVISIT": "Week 24",
      "AVISITN": 24.0,
      "VISIT": "RETRIEVAL",
      "VISITNUM": 201.0,
      "ADY": 186.0,
      "ADT": 19594.0,
      "PARAMCD": "CIBICVAL",
      "PARAM": "CIBIC Score",
      "PARAMN": 1.0,
      "AVAL": 5.0,
      "ANL01FL": "Y",
      "DTYPE": "",
      "AWRANGE": ">140",
      "AWTARGET": 168.0,
      "AWTDIFF": 18.0,
      "AWLO": 141.0,
      "AWHI": 220.0,
      "AWU": "DAYS",
      "QSSEQ": 6003.0
    },
    {
      "STUDYID": "CDISCPILOT01",
      "SITEID": "703",
      "SITEGR1": "703",
      "USUBJID": "01-703-1175",
      "TRTSDT": 19712.0,
      "TRTEDT": 19718.0,
      "TRTP": "Placebo",
      "TRTPN": 5.397605346934028e-79,
      "AGE": 75.0,
      "AGEGR1": "65-80",
      "AGEGR1N": 2.0,
      "RACE": "WHITE",
      "RACEN": 1.0,
      "SEX": "M",
      "ITTFL": "Y",
      "EFFFL": "Y",
      "COMP24FL": "N",
      "AVISIT": "Week 8",
      "AVISITN": 8.0,
      "VISIT": "WEEK 2",
      "VISITNUM": 4.0,
      "ADY": 12.0,
      "ADT": 19723.0,
      "PARAMCD": "CIBICVAL",
      "PARAM": "CIBIC Score",
      "PARAMN": 1.0,
      "AVAL": 4.0,
      "ANL01FL": "Y",
      "DTYPE": "",
      "AWRANGE": "2-84",
      "AWTARGET": 56.0,
      "AWTDIFF": 44.0,
      "AWLO": 2.0,
      "AWHI": 84.0,
      "AWU": "DAYS",
      "QSSEQ": 6001.0
    },
    {
      "STUDYID": "CDISCPILOT01",
      "SITEID": "703",
      "SITEGR1": "703",
      "USUBJID": "01-703-1175",
      "TRTSDT": 19712.0,
      "TRTEDT": 19718.0,
      "TRTP": "Placebo",
      "TRTPN": 5.397605346934028e-79,
      "AGE": 75.0,
      "AGEGR1": "65-80",
      "AGEGR1N": 2.0,
      "RACE": "WHITE",
      "RACEN": 1.0,
      "SEX": "M",
      "ITTFL": "Y",
      "EFFFL": "Y",
      "COMP24FL": "N",
      "AVISIT": "Week 16",
      "AVISITN": 16.0,
      "VISIT": "WEEK 2",
      "VISITNUM": 4.0,
      "ADY": 12.0,
      "ADT": 19723.0,
      "PARAMCD": "CIBICVAL",
      "PARAM": "CIBIC Score",
      "PARAMN": 1.0,
      "AVAL": 4.0,
      "ANL01FL": "Y",
      "DTYPE": "LOCF",
      "AWRANGE": "85-140",
      "AWTARGET": 112.0,
      "AWTDIFF": 100.0,
      "AWLO": 85.0,
      "AWHI": 140.0,
      "AWU": "DAYS",
      "QSSEQ": 6001.0
    },
    {
      "STUDYID": "CDISCPILOT01",
      "SITEID": "703",
      "SITEGR1": "703",
      "USUBJID": "01-703-1175",
      "TRTSDT": 19712.0,
      "TRTEDT": 19718.0,
      "TRTP": "Placebo",
      "TRTPN": 5.397605346934028e-79,
      "AGE": 75.0,
      "AGEGR1": "65-80",
      "AGEGR1N": 2.0,
      "RACE": "WHITE",
      "RACEN": 1.0,
      "SEX": "M",
      "ITTFL": "Y",
      "EFFFL": "Y",
      "COMP24FL": "N",
      "AVISIT": "Week 24",
      "AVISITN": 24.0,
      "VISIT": "WEEK 2",
      "VISITNUM": 4.0,
      "ADY": 12.0,
      "ADT": 19723.0,
      "PARAMCD": "CIBICVAL",
      "PARAM": "CIBIC Score",
      "PARAMN": 1.0,
      "AVAL": 4.0,
      "ANL01FL": "Y",
      "DTYPE": "LOCF",
      "AWRANGE": ">140",
      "AWTARGET": 168.0,
      "AWTDIFF": 156.0,
      "AWLO": 141.0,
      "AWHI": 220.0,
      "AWU": "DAYS",
      "QSSEQ": 6001.0
    },
    {
      "STUDYID": "CDISCPILOT01",
      "SITEID": "703",
      "SITEGR1": "703",
      "USUBJID": "01-703-1182",
      "TRTSDT": 19648.0,
      "TRTEDT": 19703.0,
      "TRTP": "Xanomeline Low Dose",
      "TRTPN": 54.0,
      "AGE": 84.0,
      "AGEGR1": ">80",
      "AGEGR1N": 3.0,
      "RACE": "WHITE",
      "RACEN": 1.0,
      "SEX": "M",
      "ITTFL": "Y",
      "EFFFL": "Y",
      "COMP24FL": "N",
      "AVISIT": "Week 8",
      "AVISITN": 8.0,
      "VISIT": "WEEK 8",
      "VISITNUM": 8.0,
      "ADY": 57.0,
      "ADT": 19704.0,
      "PARAMCD": "CIBICVAL",
      "PARAM": "CIBIC Score",
      "PARAMN": 1.0,
      "AVAL": 4.0,
      "ANL01FL": "Y",
      "DTYPE": "",
      "AWRANGE": "2-84",
      "AWTARGET": 56.0,
      "AWTDIFF": 1.0,
      "AWLO": 2.0,
      "AWHI": 84.0,
      "AWU": "DAYS",
      "QSSEQ": 6001.0
    },
    {
      "STUDYID": "CDISCPILOT01",
      "SITEID": "703",
      "SITEGR1": "703",
      "USUBJID": "01-703-1182",
      "TRTSDT": 19648.0,
      "TRTEDT": 19703.0,
      "TRTP": "Xanomeline Low Dose",
      "TRTPN": 54.0,
      "AGE": 84.0,
      "AGEGR1": ">80",
      "AGEGR1N": 3.0,
      "RACE": "WHITE",
      "RACEN": 1.0,
      "SEX": "M",
      "ITTFL": "Y",
      "EFFFL": "Y",
      "COMP24FL": "N",
      "AVISIT": "Week 16",
      "AVISITN": 16.0,
      "VISIT": "WEEK 8",
      "VISITNUM": 8.0,
      "ADY": 57.0,
      "ADT": 19704.0,
      "PARAMCD": "CIBICVAL",
      "PARAM": "CIBIC Score",
      "PARAMN": 1.0,
      "AVAL": 4.0,
      "ANL01FL": "Y",
      "DTYPE": "LOCF",
      "AWRANGE": "85-140",
      "AWTARGET": 112.0,
      "AWTDIFF": 55.0,
      "AWLO": 85.0,
      "AWHI": 140.0,
      "AWU": "DAYS",
      "QSSEQ": 6001.0
    },
    {
      "STUDYID": "CDISCPILOT01",
      "SITEID": "703",
      "SITEGR1": "703",
      "USUBJID": "01-703-1182",
      "TRTSDT": 19648.0,
      "TRTEDT": 19703.0,
      "TRTP": "Xanomeline Low Dose",
      "TRTPN": 54.0,
      "AGE": 84.0,
      "AGEGR1": ">80",
      "AGEGR1N": 3.0,
      "RACE": "WHITE",
      "RACEN": 1.0,
      "SEX": "M",
      "ITTFL": "Y",
      "EFFFL": "Y",
      "COMP24FL": "N",
      "AVISIT": "Week 24",
      "AVISITN": 24.0,
      "VISIT": "WEEK 8",
      "VISITNUM": 8.0,
      "ADY": 57.0,
      "ADT": 19704.0,
      "PARAMCD": "CIBICVAL",
      "PARAM": "CIBIC Score",
      "PARAMN": 1.0,
      "AVAL": 4.0,
      "ANL01FL": "Y",
      "DTYPE": "LOCF",
      "AWRANGE": ">140",
      "AWTARGET": 168.0,
      "AWTDIFF": 111.0,
      "AWLO": 141.0,
      "AWHI": 220.0,
      "AWU": "DAYS",
      "QSSEQ": 6001.0
    },
    {
      "STUDYID": "CDISCPILOT01",
      "SITEID": "703",
      "SITEGR1": "703",
      "USUBJID": "01-703-1197",
      "TRTSDT": 19525.0,
      "TRTEDT": 19538.0,
      "TRTP": "Xanomeline Low Dose",
      "TRTPN": 54.0,
      "AGE": 76.0,
      "AGEGR1": "65-80",
      "AGEGR1N": 2.0,
      "RACE": "BLACK OR AFRICAN AMERICAN",
      "RACEN": 2.0,
      "SEX": "F",
      "ITTFL": "Y",
      "EFFFL": "Y",
      "COMP24FL": "N",
      "AVISIT": "Week 8",
      "AVISITN": 8.0,
      "VISIT": "WEEK 2",
      "VISITNUM": 4.0,
      "ADY": 37.0,
      "ADT": 19561.0,
      "PARAMCD": "CIBICVAL",
      "PARAM": "CIBIC Score",
      "PARAMN": 1.0,
      "AVAL": 4.0,
      "ANL01FL": "Y",
      "DTYPE": "",
      "AWRANGE": "2-84",
      "AWTARGET": 56.0,
      "AWTDIFF": 19.0,
      "AWLO": 2.0,
      "AWHI": 84.0,
      "AWU": "DAYS",
      "QSSEQ": 6001.0
    },
    {
      "STUDYID": "CDISCPILOT01",
      "SITEID": "703",
      "SITEGR1": "703",
      "USUBJID": "01-703-1197",
      "TRTSDT": 19525.0,
      "TRTEDT": 19538.0,
      "TRTP": "Xanomeline Low Dose",
      "TRTPN": 54.0,
      "AGE": 76.0,
      "AGEGR1": "65-80",
      "AGEGR1N": 2.0,
      "RACE": "BLACK OR AFRICAN AMERICAN",
      "RACEN": 2.0,
      "SEX": "F",
      "ITTFL": "Y",
      "EFFFL": "Y",
      "COMP24FL": "N",
      "AVISIT": "Week 16",
      "AVISITN": 16.0,
      "VISIT": "WEEK 2",
      "VISITNUM": 4.0,
      "ADY": 37.0,
      "ADT": 19561.0,
      "PARAMCD": "CIBICVAL",
      "PARAM": "CIBIC Score",
      "PARAMN": 1.0,
      "AVAL": 4.0,
      "ANL01FL": "Y",
      "DTYPE": "LOCF",
      "AWRANGE": "85-140",
      "AWTARGET": 112.0,
      "AWTDIFF": 75.0,
      "AWLO": 85.0,
      "AWHI": 140.0,
      "AWU": "DAYS",
      "QSSEQ": 6001.0
    },
    {
      "STUDYID": "CDISCPILOT01",
      "SITEID": "703",
      "SITEGR1": "703",
      "USUBJID": "01-703-1197",
      "TRTSDT": 19525.0,
      "TRTEDT": 19538.0,
      "TRTP": "Xanomeline Low Dose",
      "TRTPN": 54.0,
      "AGE": 76.0,
      "AGEGR1": "65-80",
      "AGEGR1N": 2.0,
      "RACE": "BLACK OR AFRICAN AMERICAN",
      "RACEN": 2.0,
      "SEX": "F",
      "ITTFL": "Y",
      "EFFFL": "Y",
      "COMP24FL": "N",
      "AVISIT": "Week 24",
      "AVISITN": 24.0,
      "VISIT": "WEEK 2",
      "VISITNUM": 4.0,
      "ADY": 37.0,
      "ADT": 19561.0,
      "PARAMCD": "CIBICVAL",
      "PARAM": "CIBIC Score",
      "PARAMN": 1.0,
      "AVAL": 4.0,
      "ANL01FL": "Y",
      "DTYPE": "LOCF",
      "AWRANGE": ">140",
      "AWTARGET": 168.0,
      "AWTDIFF": 131.0,
      "AWLO": 141.0,
      "AWHI": 220.0,
      "AWU": "DAYS",
      "QSSEQ": 6001.0
    },
    {
      "STUDYID": "CDISCPILOT01",
      "SITEID": "703",
      "SITEGR1": "703",
      "USUBJID": "01-703-1210",
      "TRTSDT": 19433.0,
      "TRTEDT": 19607.0,
      "TRTP": "Placebo",
      "TRTPN": 5.397605346934028e-79,
      "AGE": 72.0,
      "AGEGR1": "65-80",
      "AGEGR1N": 2.0,
      "RACE": "WHITE",
      "RACEN": 1.0,
      "SEX": "F",
      "ITTFL": "Y",
      "EFFFL": "Y",
      "COMP24FL": "Y",
      "AVISIT": "Week 8",
      "AVISITN": 8.0,
      "VISIT": "WEEK 8",
      "VISITNUM": 8.0,
      "ADY": 56.0,
      "ADT": 19488.0,
      "PARAMCD": "CIBICVAL",
      "PARAM": "CIBIC Score",
      "PARAMN": 1.0,
      "AVAL": 5.0,
      "ANL01FL": "Y",
      "DTYPE": "",
      "AWRANGE": "2-84",
      "AWTARGET": 56.0,
      "AWTDIFF": 5.397605346934028e-79,
      "AWLO": 2.0,
      "AWHI": 84.0,
      "AWU": "DAYS",
      "QSSEQ": 6001.0
    },
    {
      "STUDYID": "CDISCPILOT01",
      "SITEID": "703",
      "SITEGR1": "703",
      "USUBJID": "01-703-1210",
      "TRTSDT": 19433.0,
      "TRTEDT": 19607.0,
      "TRTP": "Placebo",
      "TRTPN": 5.397605346934028e-79,
      "AGE": 72.0,
      "AGEGR1": "65-80",
      "AGEGR1N": 2.0,
      "RACE": "WHITE",
      "RACEN": 1.0,
      "SEX": "F",
      "ITTFL": "Y",
      "EFFFL": "Y",
      "COMP24FL": "Y",
      "AVISIT": "Week 16",
      "AVISITN": 16.0,
      "VISIT": "WEEK 16",
      "VISITNUM": 10.0,
      "ADY": 112.0,
      "ADT": 19544.0,
      "PARAMCD": "CIBICVAL",
      "PARAM": "CIBIC Score",
      "PARAMN": 1.0,
      "AVAL": 4.0,
      "ANL01FL": "Y",
      "DTYPE": "",
      "AWRANGE": "85-140",
      "AWTARGET": 112.0,
      "AWTDIFF": 5.397605346934028e-79,
      "AWLO": 85.0,
      "AWHI": 140.0,
      "AWU": "DAYS",
      "QSSEQ": 6002.0
    },
    {
      "STUDYID": "CDISCPILOT01",
      "SITEID": "703",
      "SITEGR1": "703",
      "USUBJID": "01-703-1210",
      "TRTSDT": 19433.0,
      "TRTEDT": 19607.0,
      "TRTP": "Placebo",
      "TRTPN": 5.397605346934028e-79,
      "AGE": 72.0,
      "AGEGR1": "65-80",
      "AGEGR1N": 2.0,
      "RACE": "WHITE",
      "RACEN": 1.0,
      "SEX": "F",
      "ITTFL": "Y",
      "EFFFL": "Y",
      "COMP24FL": "Y",
      "AVISIT": "Week 24",
      "AVISITN": 24.0,
      "VISIT": "WEEK 24",
      "VISITNUM": 12.0,
      "ADY": 162.0,
      "ADT": 19594.0,
      "PARAMCD": "CIBICVAL",
      "PARAM": "CIBIC Score",
      "PARAMN": 1.0,
      "AVAL": 5.0,
      "ANL01FL": "Y",
      "DTYPE": "",
      "AWRANGE": ">140",
      "AWTARGET": 168.0,
      "AWTDIFF": 6.0,
      "AWLO": 141.0,
      "AWHI": 220.0,
      "AWU": "DAYS",
      "QSSEQ": 6003.0
    },
    {
      "STUDYID": "CDISCPILOT01",
      "SITEID": "703",
      "SITEGR1": "703",
      "USUBJID": "01-703-1258",
      "TRTSDT": 19194.0,
      "TRTEDT": 19369.0,
      "TRTP": "Xanomeline High Dose",
      "TRTPN": 81.0,
      "AGE": 78.0,
      "AGEGR1": "65-80",
      "AGEGR1N": 2.0,
      "RACE": "WHITE",
      "RACEN": 1.0,
      "SEX": "F",
      "ITTFL": "Y",
      "EFFFL": "Y",
      "COMP24FL": "Y",
      "AVISIT": "Week 8",
      "AVISITN": 8.0,
      "VISIT": "WEEK 8",
      "VISITNUM": 8.0,
      "ADY": 57.0,
      "ADT": 19250.0,
      "PARAMCD": "CIBICVAL",
      "PARAM": "CIBIC Score",
      "PARAMN": 1.0,
      "AVAL": 5.0,
      "ANL01FL": "Y",
      "DTYPE": "",
      "AWRANGE": "2-84",
      "AWTARGET": 56.0,
      "AWTDIFF": 1.0,
      "AWLO": 2.0,
      "AWHI": 84.0,
      "AWU": "DAYS",
      "QSSEQ": 6001.0
    },
    {
      "STUDYID": "CDISCPILOT01",
      "SITEID": "703",
      "SITEGR1": "703",
      "USUBJID": "01-703-1258",
      "TRTSDT": 19194.0,
      "TRTEDT": 19369.0,
      "TRTP": "Xanomeline High Dose",
      "TRTPN": 81.0,
      "AGE": 78.0,
      "AGEGR1": "65-80",
      "AGEGR1N": 2.0,
      "RACE": "WHITE",
      "RACEN": 1.0,
      "SEX": "F",
      "ITTFL": "Y",
      "EFFFL": "Y",
      "COMP24FL": "Y",
      "AVISIT": "Week 16",
      "AVISITN": 16.0,
      "VISIT": "WEEK 16",
      "VISITNUM": 10.0,
      "ADY": 109.0,
      "ADT": 19302.0,
      "PARAMCD": "CIBICVAL",
      "PARAM": "CIBIC Score",
      "PARAMN": 1.0,
      "AVAL": 4.0,
      "ANL01FL": "Y",
      "DTYPE": "",
      "AWRANGE": "85-140",
      "AWTARGET": 112.0,
      "AWTDIFF": 3.0,
      "AWLO": 85.0,
      "AWHI": 140.0,
      "AWU": "DAYS",
      "QSSEQ": 6002.0
    },
    {
      "STUDYID": "CDISCPILOT01",
      "SITEID": "703",
      "SITEGR1": "703",
      "USUBJID": "01-703-1258",
      "TRTSDT": 19194.0,
      "TRTEDT": 19369.0,
      "TRTP": "Xanomeline High Dose",
      "TRTPN": 81.0,
      "AGE": 78.0,
      "AGEGR1": "65-80",
      "AGEGR1N": 2.0,
      "RACE": "WHITE",
      "RACEN": 1.0,
      "SEX": "F",
      "ITTFL": "Y",
      "EFFFL": "Y",
      "COMP24FL": "Y",
      "AVISIT": "Week 24",
      "AVISITN": 24.0,
      "VISIT": "WEEK 24",
      "VISITNUM": 12.0,
      "ADY": 165.0,
      "ADT": 19358.0,
      "PARAMCD": "CIBICVAL",
      "PARAM": "CIBIC Score",
      "PARAMN": 1.0,
      "AVAL": 5.0,
      "ANL01FL": "Y",
      "DTYPE": "",
      "AWRANGE": ">140",
      "AWTARGET": 168.0,
      "AWTDIFF": 3.0,
      "AWLO": 141.0,
      "AWHI": 220.0,
      "AWU": "DAYS",
      "QSSEQ": 6003.0
    },
    {
      "STUDYID": "CDISCPILOT01",
      "SITEID": "703",
      "SITEGR1": "703",
      "USUBJID": "01-703-1295",
      "TRTSDT": 19683.0,
      "TRTEDT": 19832.0,
      "TRTP": "Xanomeline High Dose",
      "TRTPN": 81.0,
      "AGE": 88.0,
      "AGEGR1": ">80",
      "AGEGR1N": 3.0,
      "RACE": "WHITE",
      "RACEN": 1.0,
      "SEX": "F",
      "ITTFL": "Y",
      "EFFFL": "Y",
      "COMP24FL": "N",
      "AVISIT": "Week 8",
      "AVISITN": 8.0,
      "VISIT": "WEEK 8",
      "VISITNUM": 8.0,
      "ADY": 56.0,
      "ADT": 19738.0,
      "PARAMCD": "CIBICVAL",
      "PARAM": "CIBIC Score",
      "PARAMN": 1.0,
      "AVAL": 5.0,
      "ANL01FL": "Y",
      "DTYPE": "",
      "AWRANGE": "2-84",
      "AWTARGET": 56.0,
      "AWTDIFF": 5.397605346934028e-79,
      "AWLO": 2.0,
      "AWHI": 84.0,
      "AWU": "DAYS",
      "QSSEQ": 6001.0
    },
    {
      "STUDYID": "CDISCPILOT01",
      "SITEID": "703",
      "SITEGR1": "703",
      "USUBJID": "01-703-1295",
      "TRTSDT": 19683.0,
      "TRTEDT": 19832.0,
      "TRTP": "Xanomeline High Dose",
      "TRTPN": 81.0,
      "AGE": 88.0,
      "AGEGR1": ">80",
      "AGEGR1N": 3.0,
      "RACE": "WHITE",
      "RACEN": 1.0,
      "SEX": "F",
      "ITTFL": "Y",
      "EFFFL": "Y",
      "COMP24FL": "N",
      "AVISIT": "Week 16",
      "AVISITN": 16.0,
      "VISIT": "WEEK 16",
      "VISITNUM": 10.0,
      "ADY": 113.0,
      "ADT": 19795.0,
      "PARAMCD": "CIBICVAL",
      "PARAM": "CIBIC Score",
      "PARAMN": 1.0,
      "AVAL": 4.0,
      "ANL01FL": "Y",
      "DTYPE": "",
      "AWRANGE": "85-140",
      "AWTARGET": 112.0,
      "AWTDIFF": 1.0,
      "AWLO": 85.0,
      "AWHI": 140.0,
      "AWU": "DAYS",
      "QSSEQ": 6002.0
    },
    {
      "STUDYID": "CDISCPILOT01",
      "SITEID": "703",
      "SITEGR1": "703",
      "USUBJID": "01-703-1295",
      "TRTSDT": 19683.0,
      "TRTEDT": 19832.0,
      "TRTP": "Xanomeline High Dose",
      "TRTPN": 81.0,
      "AGE": 88.0,
      "AGEGR1": ">80",
      "AGEGR1N": 3.0,
      "RACE": "WHITE",
      "RACEN": 1.0,
      "SEX": "F",
      "ITTFL": "Y",
      "EFFFL": "Y",
      "COMP24FL": "N",
      "AVISIT": "Week 24",
      "AVISITN": 24.0,
      "VISIT": "WEEK 16",
      "VISITNUM": 10.0,
      "ADY": 113.0,
      "ADT": 19795.0,
      "PARAMCD": "CIBICVAL",
      "PARAM": "CIBIC Score",
      "PARAMN": 1.0,
      "AVAL": 4.0,
      "ANL01FL": "Y",
      "DTYPE": "LOCF",
      "AWRANGE": ">140",
      "AWTARGET": 168.0,
      "AWTDIFF": 55.0,
      "AWLO": 141.0,
      "AWHI": 220.0,
      "AWU": "DAYS",
      "QSSEQ": 6002.0
    },
    {
      "STUDYID": "CDISCPILOT01",
      "SITEID": "703",
      "SITEGR1": "703",
      "USUBJID": "01-703-1299",
      "TRTSDT": 19248.0,
      "TRTEDT": 19430.0,
      "TRTP": "Placebo",
      "TRTPN": 5.397605346934028e-79,
      "AGE": 81.0,
      "AGEGR1": ">80",
      "AGEGR1N": 3.0,
      "RACE": "WHITE",
      "RACEN": 1.0,
      "SEX": "F",
      "ITTFL": "Y",
      "EFFFL": "Y",
      "COMP24FL": "Y",
      "AVISIT": "Week 8",
      "AVISITN": 8.0,
      "VISIT": "WEEK 8",
      "VISITNUM": 8.0,
      "ADY": 57.0,
      "ADT": 19304.0,
      "PARAMCD": "CIBICVAL",
      "PARAM": "CIBIC Score",
      "PARAMN": 1.0,
      "AVAL": 3.0,
      "ANL01FL": "Y",
      "DTYPE": "",
      "AWRANGE": "2-84",
      "AWTARGET": 56.0,
      "AWTDIFF": 1.0,
      "AWLO": 2.0,
      "AWHI": 84.0,
      "AWU": "DAYS",
      "QSSEQ": 6001.0
    },
    {
      "STUDYID": "CDISCPILOT01",
      "SITEID": "703",
      "SITEGR1": "703",
      "USUBJID": "01-703-1299",
      "TRTSDT": 19248.0,
      "TRTEDT": 19430.0,
      "TRTP": "Placebo",
      "TRTPN": 5.397605346934028e-79,
      "AGE": 81.0,
      "AGEGR1": ">80",
      "AGEGR1N": 3.0,
      "RACE": "WHITE",
      "RACEN": 1.0,
      "SEX": "F",
      "ITTFL": "Y",
      "EFFFL": "Y",
      "COMP24FL": "Y",
      "AVISIT": "Week 16",
      "AVISITN": 16.0,
      "VISIT": "WEEK 16",
      "VISITNUM": 10.0,
      "ADY": 113.0,
      "ADT": 19360.0,
      "PARAMCD": "CIBICVAL",
      "PARAM": "CIBIC Score",
      "PARAMN": 1.0,
      "AVAL": 4.0,
      "ANL01FL": "Y",
      "DTYPE": "",
      "AWRANGE": "85-140",
      "AWTARGET": 112.0,
      "AWTDIFF": 1.0,
      "AWLO": 85.0,
      "AWHI": 140.0,
      "AWU": "DAYS",
      "QSSEQ": 6002.0
    },
    {
      "STUDYID": "CDISCPILOT01",
      "SITEID": "703",
      "SITEGR1": "703",
      "USUBJID": "01-703-1299",
      "TRTSDT": 19248.0,
      "TRTEDT": 19430.0,
      "TRTP": "Placebo",
      "TRTPN": 5.397605346934028e-79,
      "AGE": 81.0,
      "AGEGR1": ">80",
      "AGEGR1N": 3.0,
      "RACE": "WHITE",
      "RACEN": 1.0,
      "SEX": "F",
      "ITTFL": "Y",
      "EFFFL": "Y",
      "COMP24FL": "Y",
      "AVISIT": "Week 24",
      "AVISITN": 24.0,
      "VISIT": "WEEK 24",
      "VISITNUM": 12.0,
      "ADY": 171.0,
      "ADT": 19418.0,
      "PARAMCD": "CIBICVAL",
      "PARAM": "CIBIC Score",
      "PARAMN": 1.0,
      "AVAL": 4.0,
      "ANL01FL": "Y",
      "DTYPE": "",
      "AWRANGE": ">140",
      "AWTARGET": 168.0,
      "AWTDIFF": 3.0,
      "AWLO": 141.0,
      "AWHI": 220.0,
      "AWU": "DAYS",
      "QSSEQ": 6003.0
    },
    {
      "STUDYID": "CDISCPILOT01",
      "SITEID": "703",
      "SITEGR1": "703",
      "USUBJID": "01-703-1335",
      "TRTSDT": 19799.0,
      "TRTEDT": 19850.0,
      "TRTP": "Xanomeline High Dose",
      "TRTPN": 81.0,
      "AGE": 67.0,
      "AGEGR1": "65-80",
      "AGEGR1N": 2.0,
      "RACE": "BLACK OR AFRICAN AMERICAN",
      "RACEN": 2.0,
      "SEX": "F",
      "ITTFL": "Y",
      "EFFFL": "Y",
      "COMP24FL": "N",
      "AVISIT": "Week 8",
      "AVISITN": 8.0,
      "VISIT": "WEEK 6",
      "VISITNUM": 7.0,
      "ADY": 69.0,
      "ADT": 19867.0,
      "PARAMCD": "CIBICVAL",
      "PARAM": "CIBIC Score",
      "PARAMN": 1.0,
      "AVAL": 5.0,
      "ANL01FL": "Y",
      "DTYPE": "",
      "AWRANGE": "2-84",
      "AWTARGET": 56.0,
      "AWTDIFF": 13.0,
      "AWLO": 2.0,
      "AWHI": 84.0,
      "AWU": "DAYS",
      "QSSEQ": 6001.0
    },
    {
      "STUDYID": "CDISCPILOT01",
      "SITEID": "703",
      "SITEGR1": "703",
      "USUBJID": "01-703-1335",
      "TRTSDT": 19799.0,
      "TRTEDT": 19850.0,
      "TRTP": "Xanomeline High Dose",
      "TRTPN": 81.0,
      "AGE": 67.0,
      "AGEGR1": "65-80",
      "AGEGR1N": 2.0,
      "RACE": "BLACK OR AFRICAN AMERICAN",
      "RACEN": 2.0,
      "SEX": "F",
      "ITTFL": "Y",
      "EFFFL": "Y",
      "COMP24FL": "N",
      "AVISIT": "Week 16",
      "AVISITN": 16.0,
      "VISIT": "WEEK 6",
      "VISITNUM": 7.0,
      "ADY": 69.0,
      "ADT": 19867.0,
      "PARAMCD": "CIBICVAL",
      "PARAM": "CIBIC Score",
      "PARAMN": 1.0,
      "AVAL": 5.0,
      "ANL01FL": "Y",
      "DTYPE": "LOCF",
      "AWRANGE": "85-140",
      "AWTARGET": 112.0,
      "AWTDIFF": 43.0,
      "AWLO": 85.0,
      "AWHI": 140.0,
      "AWU": "DAYS",
      "QSSEQ": 6001.0
    },
    {
      "STUDYID": "CDISCPILOT01",
      "SITEID": "703",
      "SITEGR1": "703",
      "USUBJID": "01-703-1335",
      "TRTSDT": 19799.0,
      "TRTEDT": 19850.0,
      "TRTP": "Xanomeline High Dose",
      "TRTPN": 81.0,
      "AGE": 67.0,
      "AGEGR1": "65-80",
      "AGEGR1N": 2.0,
      "RACE": "BLACK OR AFRICAN AMERICAN",
      "RACEN": 2.0,
      "SEX": "F",
      "ITTFL": "Y",
      "EFFFL": "Y",
      "COMP24FL": "N",
      "AVISIT": "Week 24",
      "AVISITN": 24.0,
      "VISIT": "WEEK 6",
      "VISITNUM": 7.0,
      "ADY": 69.0,
      "ADT": 19867.0,
      "PARAMCD": "CIBICVAL",
      "PARAM": "CIBIC Score",
      "PARAMN": 1.0,
      "AVAL": 5.0,
      "ANL01FL": "Y",
      "DTYPE": "LOCF",
      "AWRANGE": ">140",
      "AWTARGET": 168.0,
      "AWTDIFF": 99.0,
      "AWLO": 141.0,
      "AWHI": 220.0,
      "AWU": "DAYS",
      "QSSEQ": 6001.0
    },
    {
      "STUDYID": "CDISCPILOT01",
      "SITEID": "703",
      "SITEGR1": "703",
      "USUBJID": "01-703-1379",
      "TRTSDT": 19623.0,
      "TRTEDT": 19803.0,
      "TRTP": "Xanomeline Low Dose",
      "TRTPN": 54.0,
      "AGE": 81.0,
      "AGEGR1": ">80",
      "AGEGR1N": 3.0,
      "RACE": "BLACK OR AFRICAN AMERICAN",
      "RACEN": 2.0,
      "SEX": "F",
      "ITTFL": "Y",
      "EFFFL": "Y",
      "COMP24FL": "Y",
      "AVISIT": "Week 8",
      "AVISITN": 8.0,
      "VISIT": "WEEK 8",
      "VISITNUM": 8.0,
      "ADY": 57.0,
      "ADT": 19679.0,
      "PARAMCD": "CIBICVAL",
      "PARAM": "CIBIC Score",
      "PARAMN": 1.0,
      "AVAL": 4.0,
      "ANL01FL": "Y",
      "DTYPE": "",
      "AWRANGE": "2-84",
      "AWTARGET": 56.0,
      "AWTDIFF": 1.0,
      "AWLO": 2.0,
      "AWHI": 84.0,
      "AWU": "DAYS",
      "QSSEQ": 6001.0
    },
    {
      "STUDYID": "CDISCPILOT01",
      "SITEID": "703",
      "SITEGR1": "703",
      "USUBJID": "01-703-1379",
      "TRTSDT": 19623.0,
      "TRTEDT": 19803.0,
      "TRTP": "Xanomeline Low Dose",
      "TRTPN": 54.0,
      "AGE": 81.0,
      "AGEGR1": ">80",
      "AGEGR1N": 3.0,
      "RACE": "BLACK OR AFRICAN AMERICAN",
      "RACEN": 2.0,
      "SEX": "F",
      "ITTFL": "Y",
      "EFFFL": "Y",
      "COMP24FL": "Y",
      "AVISIT": "Week 16",
      "AVISITN": 16.0,
      "VISIT": "WEEK 16",
      "VISITNUM": 10.0,
      "ADY": 112.0,
      "ADT": 19734.0,
      "PARAMCD": "CIBICVAL",
      "PARAM": "CIBIC Score",
      "PARAMN": 1.0,
      "AVAL": 4.0,
      "ANL01FL": "Y",
      "DTYPE": "",
      "AWRANGE": "85-140",
      "AWTARGET": 112.0,
      "AWTDIFF": 5.397605346934028e-79,
      "AWLO": 85.0,
      "AWHI": 140.0,
      "AWU": "DAYS",
      "QSSEQ": 6002.0
    },
    {
      "STUDYID": "CDISCPILOT01",
      "SITEID": "703",
      "SITEGR1": "703",
      "USUBJID": "01-703-1379",
      "TRTSDT": 19623.0,
      "TRTEDT": 19803.0,
      "TRTP": "Xanomeline Low Dose",
      "TRTPN": 54.0,
      "AGE": 81.0,
      "AGEGR1": ">80",
      "AGEGR1N": 3.0,
      "RACE": "BLACK OR AFRICAN AMERICAN",
      "RACEN": 2.0,
      "SEX": "F",
      "ITTFL": "Y",
      "EFFFL": "Y",
      "COMP24FL": "Y",
      "AVISIT": "Week 24",
      "AVISITN": 24.0,
      "VISIT": "WEEK 24",
      "VISITNUM": 12.0,
      "ADY": 168.0,
      "ADT": 19790.0,
      "PARAMCD": "CIBICVAL",
      "PARAM": "CIBIC Score",
      "PARAMN": 1.0,
      "AVAL": 5.0,
      "ANL01FL": "Y",
      "DTYPE": "",
      "AWRANGE": ">140",
      "AWTARGET": 168.0,
      "AWTDIFF": 5.397605346934028e-79,
      "AWLO": 141.0,
      "AWHI": 220.0,
      "AWU": "DAYS",
      "QSSEQ": 6003.0
    },
    {
      "STUDYID": "CDISCPILOT01",
      "SITEID": "703",
      "SITEGR1": "703",
      "USUBJID": "01-703-1439",
      "TRTSDT": 19794.0,
      "TRTEDT": 19977.0,
      "TRTP": "Xanomeline High Dose",
      "TRTPN": 81.0,
      "AGE": 76.0,
      "AGEGR1": "65-80",
      "AGEGR1N": 2.0,
      "RACE": "WHITE",
      "RACEN": 1.0,
      "SEX": "F",
      "ITTFL": "Y",
      "EFFFL": "Y",
      "COMP24FL": "Y",
      "AVISIT": "Week 8",
      "AVISITN": 8.0,
      "VISIT": "WEEK 8",
      "VISITNUM": 8.0,
      "ADY": 55.0,
      "ADT": 19848.0,
      "PARAMCD": "CIBICVAL",
      "PARAM": "CIBIC Score",
      "PARAMN": 1.0,
      "AVAL": 4.0,
      "ANL01FL": "Y",
      "DTYPE": "",
      "AWRANGE": "2-84",
      "AWTARGET": 56.0,
      "AWTDIFF": 1.0,
      "AWLO": 2.0,
      "AWHI": 84.0,
      "AWU": "DAYS",
      "QSSEQ": 6001.0
    },
    {
      "STUDYID": "CDISCPILOT01",
      "SITEID": "703",
      "SITEGR1": "703",
      "USUBJID": "01-703-1439",
      "TRTSDT": 19794.0,
      "TRTEDT": 19977.0,
      "TRTP": "Xanomeline High Dose",
      "TRTPN": 81.0,
      "AGE": 76.0,
      "AGEGR1": "65-80",
      "AGEGR1N": 2.0,
      "RACE": "WHITE",
      "RACEN": 1.0,
      "SEX": "F",
      "ITTFL": "Y",
      "EFFFL": "Y",
      "COMP24FL": "Y",
      "AVISIT": "Week 16",
      "AVISITN": 16.0,
      "VISIT": "WEEK 16",
      "VISITNUM": 10.0,
      "ADY": 111.0,
      "ADT": 19904.0,
      "PARAMCD": "CIBICVAL",
      "PARAM": "CIBIC Score",
      "PARAMN": 1.0,
      "AVAL": 5.0,
      "ANL01FL": "Y",
      "DTYPE": "",
      "AWRANGE": "85-140",
      "AWTARGET": 112.0,
      "AWTDIFF": 1.0,
      "AWLO": 85.0,
      "AWHI": 140.0,
      "AWU": "DAYS",
      "QSSEQ": 6002.0
    },
    {
      "STUDYID": "CDISCPILOT01",
      "SITEID": "703",
      "SITEGR1": "703",
      "USUBJID": "01-703-1439",
      "TRTSDT": 19794.0,
      "TRTEDT": 19977.0,
      "TRTP": "Xanomeline High Dose",
      "TRTPN": 81.0,
      "AGE": 76.0,
      "AGEGR1": "65-80",
      "AGEGR1N": 2.0,
      "RACE": "WHITE",
      "RACEN": 1.0,
      "SEX": "F",
      "ITTFL": "Y",
      "EFFFL": "Y",
      "COMP24FL": "Y",
      "AVISIT": "Week 24",
      "AVISITN": 24.0,
      "VISIT": "WEEK 24",
      "VISITNUM": 12.0,
      "ADY": 170.0,
      "ADT": 19963.0,
      "PARAMCD": "CIBICVAL",
      "PARAM": "CIBIC Score",
      "PARAMN": 1.0,
      "AVAL": 5.0,
      "ANL01FL": "Y",
      "DTYPE": "",
      "AWRANGE": ">140",
      "AWTARGET": 168.0,
      "AWTDIFF": 2.0,
      "AWLO": 141.0,
      "AWHI": 220.0,
      "AWU": "DAYS",
      "QSSEQ": 6003.0
    },
    {
      "STUDYID": "CDISCPILOT01",
      "SITEID": "704",
      "SITEGR1": "704",
      "USUBJID": "01-704-1008",
      "TRTSDT": 19371.0,
      "TRTEDT": 19410.0,
      "TRTP": "Xanomeline High Dose",
      "TRTPN": 81.0,
      "AGE": 76.0,
      "AGEGR1": "65-80",
      "AGEGR1N": 2.0,
      "RACE": "WHITE",
      "RACEN": 1.0,
      "SEX": "F",
      "ITTFL": "Y",
      "EFFFL": "Y",
      "COMP24FL": "N",
      "AVISIT": "Week 8",
      "AVISITN": 8.0,
      "VISIT": "WEEK 6",
      "VISITNUM": 7.0,
      "ADY": 44.0,
      "ADT": 19414.0,
      "PARAMCD": "CIBICVAL",
      "PARAM": "CIBIC Score",
      "PARAMN": 1.0,
      "AVAL": 5.0,
      "ANL01FL": "Y",
      "DTYPE": "",
      "AWRANGE": "2-84",
      "AWTARGET": 56.0,
      "AWTDIFF": 12.0,
      "AWLO": 2.0,
      "AWHI": 84.0,
      "AWU": "DAYS",
      "QSSEQ": 6001.0
    },
    {
      "STUDYID": "CDISCPILOT01",
      "SITEID": "704",
      "SITEGR1": "704",
      "USUBJID": "01-704-1008",
      "TRTSDT": 19371.0,
      "TRTEDT": 19410.0,
      "TRTP": "Xanomeline High Dose",
      "TRTPN": 81.0,
      "AGE": 76.0,
      "AGEGR1": "65-80",
      "AGEGR1N": 2.0,
      "RACE": "WHITE",
      "RACEN": 1.0,
      "SEX": "F",
      "ITTFL": "Y",
      "EFFFL": "Y",
      "COMP24FL": "N",
      "AVISIT": "Week 16",
      "AVISITN": 16.0,
      "VISIT": "WEEK 6",
      "VISITNUM": 7.0,
      "ADY": 44.0,
      "ADT": 19414.0,
      "PARAMCD": "CIBICVAL",
      "PARAM": "CIBIC Score",
      "PARAMN": 1.0,
      "AVAL": 5.0,
      "ANL01FL": "Y",
      "DTYPE": "LOCF",
      "AWRANGE": "85-140",
      "AWTARGET": 112.0,
      "AWTDIFF": 68.0,
      "AWLO": 85.0,
      "AWHI": 140.0,
      "AWU": "DAYS",
      "QSSEQ": 6001.0
    },
    {
      "STUDYID": "CDISCPILOT01",
      "SITEID": "704",
      "SITEGR1": "704",
      "USUBJID": "01-704-1008",
      "TRTSDT": 19371.0,
      "TRTEDT": 19410.0,
      "TRTP": "Xanomeline High Dose",
      "TRTPN": 81.0,
      "AGE": 76.0,
      "AGEGR1": "65-80",
      "AGEGR1N": 2.0,
      "RACE": "WHITE",
      "RACEN": 1.0,
      "SEX": "F",
      "ITTFL": "Y",
      "EFFFL": "Y",
      "COMP24FL": "N",
      "AVISIT": "Week 24",
      "AVISITN": 24.0,
      "VISIT": "WEEK 6",
      "VISITNUM": 7.0,
      "ADY": 44.0,
      "ADT": 19414.0,
      "PARAMCD": "CIBICVAL",
      "PARAM": "CIBIC Score",
      "PARAMN": 1.0,
      "AVAL": 5.0,
      "ANL01FL": "Y",
      "DTYPE": "LOCF",
      "AWRANGE": ">140",
      "AWTARGET": 168.0,
      "AWTDIFF": 124.0,
      "AWLO": 141.0,
      "AWHI": 220.0,
      "AWU": "DAYS",
      "QSSEQ": 6001.0
    },
    {
      "STUDYID": "CDISCPILOT01",
      "SITEID": "704",
      "SITEGR1": "704",
      "USUBJID": "01-704-1009",
      "TRTSDT": 19597.0,
      "TRTEDT": 19626.0,
      "TRTP": "Xanomeline Low Dose",
      "TRTPN": 54.0,
      "AGE": 83.0,
      "AGEGR1": ">80",
      "AGEGR1N": 3.0,
      "RACE": "WHITE",
      "RACEN": 1.0,
      "SEX": "M",
      "ITTFL": "Y",
      "EFFFL": "Y",
      "COMP24FL": "N",
      "AVISIT": "Week 8",
      "AVISITN": 8.0,
      "VISIT": "WEEK 4",
      "VISITNUM": 5.0,
      "ADY": 37.0,
      "ADT": 19633.0,
      "PARAMCD": "CIBICVAL",
      "PARAM": "CIBIC Score",
      "PARAMN": 1.0,
      "AVAL": 4.0,
      "ANL01FL": "Y",
      "DTYPE": "",
      "AWRANGE": "2-84",
      "AWTARGET": 56.0,
      "AWTDIFF": 19.0,
      "AWLO": 2.0,
      "AWHI": 84.0,
      "AWU": "DAYS",
      "QSSEQ": 6001.0
    },
    {
      "STUDYID": "CDISCPILOT01",
      "SITEID": "704",
      "SITEGR1": "704",
      "USUBJID": "01-704-1009",
      "TRTSDT": 19597.0,
      "TRTEDT": 19626.0,
      "TRTP": "Xanomeline Low Dose",
      "TRTPN": 54.0,
      "AGE": 83.0,
      "AGEGR1": ">80",
      "AGEGR1N": 3.0,
      "RACE": "WHITE",
      "RACEN": 1.0,
      "SEX": "M",
      "ITTFL": "Y",
      "EFFFL": "Y",
      "COMP24FL": "N",
      "AVISIT": "Week 16",
      "AVISITN": 16.0,
      "VISIT": "WEEK 4",
      "VISITNUM": 5.0,
      "ADY": 37.0,
      "ADT": 19633.0,
      "PARAMCD": "CIBICVAL",
      "PARAM": "CIBIC Score",
      "PARAMN": 1.0,
      "AVAL": 4.0,
      "ANL01FL": "Y",
      "DTYPE": "LOCF",
      "AWRANGE": "85-140",
      "AWTARGET": 112.0,
      "AWTDIFF": 75.0,
      "AWLO": 85.0,
      "AWHI": 140.0,
      "AWU": "DAYS",
      "QSSEQ": 6001.0
    },
    {
      "STUDYID": "CDISCPILOT01",
      "SITEID": "704",
      "SITEGR1": "704",
      "USUBJID": "01-704-1009",
      "TRTSDT": 19597.0,
      "TRTEDT": 19626.0,
      "TRTP": "Xanomeline Low Dose",
      "TRTPN": 54.0,
      "AGE": 83.0,
      "AGEGR1": ">80",
      "AGEGR1N": 3.0,
      "RACE": "WHITE",
      "RACEN": 1.0,
      "SEX": "M",
      "ITTFL": "Y",
      "EFFFL": "Y",
      "COMP24FL": "N",
      "AVISIT": "Week 24",
      "AVISITN": 24.0,
      "VISIT": "WEEK 4",
      "VISITNUM": 5.0,
      "ADY": 37.0,
      "ADT": 19633.0,
      "PARAMCD": "CIBICVAL",
      "PARAM": "CIBIC Score",
      "PARAMN": 1.0,
      "AVAL": 4.0,
      "ANL01FL": "Y",
      "DTYPE": "LOCF",
      "AWRANGE": ">140",
      "AWTARGET": 168.0,
      "AWTDIFF": 131.0,
      "AWLO": 141.0,
      "AWHI": 220.0,
      "AWU": "DAYS",
      "QSSEQ": 6001.0
    },
    {
      "STUDYID": "CDISCPILOT01",
      "SITEID": "704",
      "SITEGR1": "704",
      "USUBJID": "01-704-1010",
      "TRTSDT": 19775.0,
      "TRTEDT": 19912.0,
      "TRTP": "Placebo",
      "TRTPN": 5.397605346934028e-79,
      "AGE": 80.0,
      "AGEGR1": "65-80",
      "AGEGR1N": 2.0,
      "RACE": "WHITE",
      "RACEN": 1.0,
      "SEX": "M",
      "ITTFL": "Y",
      "EFFFL": "Y",
      "COMP24FL": "N",
      "AVISIT": "Week 8",
      "AVISITN": 8.0,
      "VISIT": "WEEK 8",
      "VISITNUM": 8.0,
      "ADY": 63.0,
      "ADT": 19837.0,
      "PARAMCD": "CIBICVAL",
      "PARAM": "CIBIC Score",
      "PARAMN": 1.0,
      "AVAL": 4.0,
      "ANL01FL": "Y",
      "DTYPE": "",
      "AWRANGE": "2-84",
      "AWTARGET": 56.0,
      "AWTDIFF": 7.0,
      "AWLO": 2.0,
      "AWHI": 84.0,
      "AWU": "DAYS",
      "QSSEQ": 6001.0
    },
    {
      "STUDYID": "CDISCPILOT01",
      "SITEID": "704",
      "SITEGR1": "704",
      "USUBJID": "01-704-1010",
      "TRTSDT": 19775.0,
      "TRTEDT": 19912.0,
      "TRTP": "Placebo",
      "TRTPN": 5.397605346934028e-79,
      "AGE": 80.0,
      "AGEGR1": "65-80",
      "AGEGR1N": 2.0,
      "RACE": "WHITE",
      "RACEN": 1.0,
      "SEX": "M",
      "ITTFL": "Y",
      "EFFFL": "Y",
      "COMP24FL": "N",
      "AVISIT": "Week 16",
      "AVISITN": 16.0,
      "VISIT": "WEEK 16",
      "VISITNUM": 10.0,
      "ADY": 113.0,
      "ADT": 19887.0,
      "PARAMCD": "CIBICVAL",
      "PARAM": "CIBIC Score",
      "PARAMN": 1.0,
      "AVAL": 3.0,
      "ANL01FL": "Y",
      "DTYPE": "",
      "AWRANGE": "85-140",
      "AWTARGET": 112.0,
      "AWTDIFF": 1.0,
      "AWLO": 85.0,
      "AWHI": 140.0,
      "AWU": "DAYS",
      "QSSEQ": 6002.0
    },
    {
      "STUDYID": "CDISCPILOT01",
      "SITEID": "704",
      "SITEGR1": "704",
      "USUBJID": "01-704-1010",
      "TRTSDT": 19775.0,
      "TRTEDT": 19912.0,
      "TRTP": "Placebo",
      "TRTPN": 5.397605346934028e-79,
      "AGE": 80.0,
      "AGEGR1": "65-80",
      "AGEGR1N": 2.0,
      "RACE": "WHITE",
      "RACEN": 1.0,
      "SEX": "M",
      "ITTFL": "Y",
      "EFFFL": "Y",
      "COMP24FL": "N",
      "AVISIT": "Week 16",
      "AVISITN": 16.0,
      "VISIT": "WEEK 20",
      "VISITNUM": 11.0,
      "ADY": 139.0,
      "ADT": 19913.0,
      "PARAMCD": "CIBICVAL",
      "PARAM": "CIBIC Score",
      "PARAMN": 1.0,
      "AVAL": 3.0,
      "ANL01FL": "",
      "DTYPE": "",
      "AWRANGE": "85-140",
      "AWTARGET": 112.0,
      "AWTDIFF": 27.0,
      "AWLO": 85.0,
      "AWHI": 140.0,
      "AWU": "DAYS",
      "QSSEQ": 6003.0
    },
    {
      "STUDYID": "CDISCPILOT01",
      "SITEID": "704",
      "SITEGR1": "704",
      "USUBJID": "01-704-1010",
      "TRTSDT": 19775.0,
      "TRTEDT": 19912.0,
      "TRTP": "Placebo",
      "TRTPN": 5.397605346934028e-79,
      "AGE": 80.0,
      "AGEGR1": "65-80",
      "AGEGR1N": 2.0,
      "RACE": "WHITE",
      "RACEN": 1.0,
      "SEX": "M",
      "ITTFL": "Y",
      "EFFFL": "Y",
      "COMP24FL": "N",
      "AVISIT": "Week 24",
      "AVISITN": 24.0,
      "VISIT": "WEEK 20",
      "VISITNUM": 11.0,
      "ADY": 139.0,
      "ADT": 19913.0,
      "PARAMCD": "CIBICVAL",
      "PARAM": "CIBIC Score",
      "PARAMN": 1.0,
      "AVAL": 3.0,
      "ANL01FL": "Y",
      "DTYPE": "LOCF",
      "AWRANGE": ">140",
      "AWTARGET": 168.0,
      "AWTDIFF": 29.0,
      "AWLO": 141.0,
      "AWHI": 220.0,
      "AWU": "DAYS",
      "QSSEQ": 6003.0
    },
    {
      "STUDYID": "CDISCPILOT01",
      "SITEID": "704",
      "SITEGR1": "704",
      "USUBJID": "01-704-1017",
      "TRTSDT": 19637.0,
      "TRTEDT": 19680.0,
      "TRTP": "Xanomeline High Dose",
      "TRTPN": 81.0,
      "AGE": 77.0,
      "AGEGR1": "65-80",
      "AGEGR1N": 2.0,
      "RACE": "WHITE",
      "RACEN": 1.0,
      "SEX": "M",
      "ITTFL": "Y",
      "EFFFL": "Y",
      "COMP24FL": "N",
      "AVISIT": "Week 8",
      "AVISITN": 8.0,
      "VISIT": "WEEK 6",
      "VISITNUM": 7.0,
      "ADY": 50.0,
      "ADT": 19686.0,
      "PARAMCD": "CIBICVAL",
      "PARAM": "CIBIC Score",
      "PARAMN": 1.0,
      "AVAL": 4.0,
      "ANL01FL": "Y",
      "DTYPE": "",
      "AWRANGE": "2-84",
      "AWTARGET": 56.0,
      "AWTDIFF": 6.0,
      "AWLO": 2.0,
      "AWHI": 84.0,
      "AWU": "DAYS",
      "QSSEQ": 6001.0
    },
    {
      "STUDYID": "CDISCPILOT01",
      "SITEID": "704",
      "SITEGR1": "704",
      "USUBJID": "01-704-1017",
      "TRTSDT": 19637.0,
      "TRTEDT": 19680.0,
      "TRTP": "Xanomeline High Dose",
      "TRTPN": 81.0,
      "AGE": 77.0,
      "AGEGR1": "65-80",
      "AGEGR1N": 2.0,
      "RACE": "WHITE",
      "RACEN": 1.0,
      "SEX": "M",
      "ITTFL": "Y",
      "EFFFL": "Y",
      "COMP24FL": "N",
      "AVISIT": "Week 16",
      "AVISITN": 16.0,
      "VISIT": "WEEK 6",
      "VISITNUM": 7.0,
      "ADY": 50.0,
      "ADT": 19686.0,
      "PARAMCD": "CIBICVAL",
      "PARAM": "CIBIC Score",
      "PARAMN": 1.0,
      "AVAL": 4.0,
      "ANL01FL": "Y",
      "DTYPE": "LOCF",
      "AWRANGE": "85-140",
      "AWTARGET": 112.0,
      "AWTDIFF": 62.0,
      "AWLO": 85.0,
      "AWHI": 140.0,
      "AWU": "DAYS",
      "QSSEQ": 6001.0
    },
    {
      "STUDYID": "CDISCPILOT01",
      "SITEID": "704",
      "SITEGR1": "704",
      "USUBJID": "01-704-1017",
      "TRTSDT": 19637.0,
      "TRTEDT": 19680.0,
      "TRTP": "Xanomeline High Dose",
      "TRTPN": 81.0,
      "AGE": 77.0,
      "AGEGR1": "65-80",
      "AGEGR1N": 2.0,
      "RACE": "WHITE",
      "RACEN": 1.0,
      "SEX": "M",
      "ITTFL": "Y",
      "EFFFL": "Y",
      "COMP24FL": "N",
      "AVISIT": "Week 24",
      "AVISITN": 24.0,
      "VISIT": "WEEK 6",
      "VISITNUM": 7.0,
      "ADY": 50.0,
      "ADT": 19686.0,
      "PARAMCD": "CIBICVAL",
      "PARAM": "CIBIC Score",
      "PARAMN": 1.0,
      "AVAL": 4.0,
      "ANL01FL": "Y",
      "DTYPE": "LOCF",
      "AWRANGE": ">140",
      "AWTARGET": 168.0,
      "AWTDIFF": 118.0,
      "AWLO": 141.0,
      "AWHI": 220.0,
      "AWU": "DAYS",
      "QSSEQ": 6001.0
    },
    {
      "STUDYID": "CDISCPILOT01",
      "SITEID": "704",
      "SITEGR1": "704",
      "USUBJID": "01-704-1025",
      "TRTSDT": 19628.0,
      "TRTEDT": 19655.0,
      "TRTP": "Xanomeline Low Dose",
      "TRTPN": 54.0,
      "AGE": 81.0,
      "AGEGR1": ">80",
      "AGEGR1N": 3.0,
      "RACE": "WHITE",
      "RACEN": 1.0,
      "SEX": "F",
      "ITTFL": "Y",
      "EFFFL": "Y",
      "COMP24FL": "N",
      "AVISIT": "Week 8",
      "AVISITN": 8.0,
      "VISIT": "AMBUL ECG REMOVAL",
      "VISITNUM": 6.0,
      "ADY": 64.0,
      "ADT": 19691.0,
      "PARAMCD": "CIBICVAL",
      "PARAM": "CIBIC Score",
      "PARAMN": 1.0,
      "AVAL": 4.0,
      "ANL01FL": "Y",
      "DTYPE": "",
      "AWRANGE": "2-84",
      "AWTARGET": 56.0,
      "AWTDIFF": 8.0,
      "AWLO": 2.0,
      "AWHI": 84.0,
      "AWU": "DAYS",
      "QSSEQ": 6001.0
    },
    {
      "STUDYID": "CDISCPILOT01",
      "SITEID": "704",
      "SITEGR1": "704",
      "USUBJID": "01-704-1025",
      "TRTSDT": 19628.0,
      "TRTEDT": 19655.0,
      "TRTP": "Xanomeline Low Dose",
      "TRTPN": 54.0,
      "AGE": 81.0,
      "AGEGR1": ">80",
      "AGEGR1N": 3.0,
      "RACE": "WHITE",
      "RACEN": 1.0,
      "SEX": "F",
      "ITTFL": "Y",
      "EFFFL": "Y",
      "COMP24FL": "N",
      "AVISIT": "Week 16",
      "AVISITN": 16.0,
      "VISIT": "AMBUL ECG REMOVAL",
      "VISITNUM": 6.0,
      "ADY": 64.0,
      "ADT": 19691.0,
      "PARAMCD": "CIBICVAL",
      "PARAM": "CIBIC Score",
      "PARAMN": 1.0,
      "AVAL": 4.0,
      "ANL01FL": "Y",
      "DTYPE": "LOCF",
      "AWRANGE": "85-140",
      "AWTARGET": 112.0,
      "AWTDIFF": 48.0,
      "AWLO": 85.0,
      "AWHI": 140.0,
      "AWU": "DAYS",
      "QSSEQ": 6001.0
    },
    {
      "STUDYID": "CDISCPILOT01",
      "SITEID": "704",
      "SITEGR1": "704",
      "USUBJID": "01-704-1025",
      "TRTSDT": 19628.0,
      "TRTEDT": 19655.0,
      "TRTP": "Xanomeline Low Dose",
      "TRTPN": 54.0,
      "AGE": 81.0,
      "AGEGR1": ">80",
      "AGEGR1N": 3.0,
      "RACE": "WHITE",
      "RACEN": 1.0,
      "SEX": "F",
      "ITTFL": "Y",
      "EFFFL": "Y",
      "COMP24FL": "N",
      "AVISIT": "Week 24",
      "AVISITN": 24.0,
      "VISIT": "AMBUL ECG REMOVAL",
      "VISITNUM": 6.0,
      "ADY": 64.0,
      "ADT": 19691.0,
      "PARAMCD": "CIBICVAL",
      "PARAM": "CIBIC Score",
      "PARAMN": 1.0,
      "AVAL": 4.0,
      "ANL01FL": "Y",
      "DTYPE": "LOCF",
      "AWRANGE": ">140",
      "AWTARGET": 168.0,
      "AWTDIFF": 104.0,
      "AWLO": 141.0,
      "AWHI": 220.0,
      "AWU": "DAYS",
      "QSSEQ": 6001.0
    },
    {
      "STUDYID": "CDISCPILOT01",
      "SITEID": "704",
      "SITEGR1": "704",
      "USUBJID": "01-704-1065",
      "TRTSDT": 19655.0,
      "TRTEDT": 19714.0,
      "TRTP": "Xanomeline High Dose",
      "TRTPN": 81.0,
      "AGE": 75.0,
      "AGEGR1": "65-80",
      "AGEGR1N": 2.0,
      "RACE": "WHITE",
      "RACEN": 1.0,
      "SEX": "M",
      "ITTFL": "Y",
      "EFFFL": "Y",
      "COMP24FL": "N",
      "AVISIT": "Week 8",
      "AVISITN": 8.0,
      "VISIT": "WEEK 8",
      "VISITNUM": 8.0,
      "ADY": 58.0,
      "ADT": 19712.0,
      "PARAMCD": "CIBICVAL",
      "PARAM": "CIBIC Score",
      "PARAMN": 1.0,
      "AVAL": 4.0,
      "ANL01FL": "Y",
      "DTYPE": "",
      "AWRANGE": "2-84",
      "AWTARGET": 56.0,
      "AWTDIFF": 2.0,
      "AWLO": 2.0,
      "AWHI": 84.0,
      "AWU": "DAYS",
      "QSSEQ": 6001.0
    },
    {
      "STUDYID": "CDISCPILOT01",
      "SITEID": "704",
      "SITEGR1": "704",
      "USUBJID": "01-704-1065",
      "TRTSDT": 19655.0,
      "TRTEDT": 19714.0,
      "TRTP": "Xanomeline High Dose",
      "TRTPN": 81.0,
      "AGE": 75.0,
      "AGEGR1": "65-80",
      "AGEGR1N": 2.0,
      "RACE": "WHITE",
      "RACEN": 1.0,
      "SEX": "M",
      "ITTFL": "Y",
      "EFFFL": "Y",
      "COMP24FL": "N",
      "AVISIT": "Week 8",
      "AVISITN": 8.0,
      "VISIT": "WEEK 12",
      "VISITNUM": 9.0,
      "ADY": 62.0,
      "ADT": 19716.0,
      "PARAMCD": "CIBICVAL",
      "PARAM": "CIBIC Score",
      "PARAMN": 1.0,
      "AVAL": 5.0,
      "ANL01FL": "",
      "DTYPE": "",
      "AWRANGE": "2-84",
      "AWTARGET": 56.0,
      "AWTDIFF": 6.0,
      "AWLO": 2.0,
      "AWHI": 84.0,
      "AWU": "DAYS",
      "QSSEQ": 6002.0
    },
    {
      "STUDYID": "CDISCPILOT01",
      "SITEID": "704",
      "SITEGR1": "704",
      "USUBJID": "01-704-1065",
      "TRTSDT": 19655.0,
      "TRTEDT": 19714.0,
      "TRTP": "Xanomeline High Dose",
      "TRTPN": 81.0,
      "AGE": 75.0,
      "AGEGR1": "65-80",
      "AGEGR1N": 2.0,
      "RACE": "WHITE",
      "RACEN": 1.0,
      "SEX": "M",
      "ITTFL": "Y",
      "EFFFL": "Y",
      "COMP24FL": "N",
      "AVISIT": "Week 16",
      "AVISITN": 16.0,
      "VISIT": "WEEK 12",
      "VISITNUM": 9.0,
      "ADY": 62.0,
      "ADT": 19716.0,
      "PARAMCD": "CIBICVAL",
      "PARAM": "CIBIC Score",
      "PARAMN": 1.0,
      "AVAL": 4.0,
      "ANL01FL": "Y",
      "DTYPE": "LOCF",
      "AWRANGE": "85-140",
      "AWTARGET": 112.0,
      "AWTDIFF": 50.0,
      "AWLO": 85.0,
      "AWHI": 140.0,
      "AWU": "DAYS",
      "QSSEQ": 6002.0
    },
    {
      "STUDYID": "CDISCPILOT01",
      "SITEID": "704",
      "SITEGR1": "704",
      "USUBJID": "01-704-1065",
      "TRTSDT": 19655.0,
      "TRTEDT": 19714.0,
      "TRTP": "Xanomeline High Dose",
      "TRTPN": 81.0,
      "AGE": 75.0,
      "AGEGR1": "65-80",
      "AGEGR1N": 2.0,
      "RACE": "WHITE",
      "RACEN": 1.0,
      "SEX": "M",
      "ITTFL": "Y",
      "EFFFL": "Y",
      "COMP24FL": "N",
      "AVISIT": "Week 24",
      "AVISITN": 24.0,
      "VISIT": "WEEK 12",
      "VISITNUM": 9.0,
      "ADY": 62.0,
      "ADT": 19716.0,
      "PARAMCD": "CIBICVAL",
      "PARAM": "CIBIC Score",
      "PARAMN": 1.0,
      "AVAL": 4.0,
      "ANL01FL": "Y",
      "DTYPE": "LOCF",
      "AWRANGE": ">140",
      "AWTARGET": 168.0,
      "AWTDIFF": 106.0,
      "AWLO": 141.0,
      "AWHI": 220.0,
      "AWU": "DAYS",
      "QSSEQ": 6002.0
    },
    {
      "STUDYID": "CDISCPILOT01",
      "SITEID": "704",
      "SITEGR1": "704",
      "USUBJID": "01-704-1074",
      "TRTSDT": 19745.0,
      "TRTEDT": 19802.0,
      "TRTP": "Xanomeline High Dose",
      "TRTPN": 81.0,
      "AGE": 80.0,
      "AGEGR1": "65-80",
      "AGEGR1N": 2.0,
      "RACE": "WHITE",
      "RACEN": 1.0,
      "SEX": "F",
      "ITTFL": "Y",
      "EFFFL": "Y",
      "COMP24FL": "N",
      "AVISIT": "Week 8",
      "AVISITN": 8.0,
      "VISIT": "WEEK 8",
      "VISITNUM": 8.0,
      "ADY": 69.0,
      "ADT": 19813.0,
      "PARAMCD": "CIBICVAL",
      "PARAM": "CIBIC Score",
      "PARAMN": 1.0,
      "AVAL": 4.0,
      "ANL01FL": "Y",
      "DTYPE": "",
      "AWRANGE": "2-84",
      "AWTARGET": 56.0,
      "AWTDIFF": 13.0,
      "AWLO": 2.0,
      "AWHI": 84.0,
      "AWU": "DAYS",
      "QSSEQ": 6001.0
    },
    {
      "STUDYID": "CDISCPILOT01",
      "SITEID": "704",
      "SITEGR1": "704",
      "USUBJID": "01-704-1074",
      "TRTSDT": 19745.0,
      "TRTEDT": 19802.0,
      "TRTP": "Xanomeline High Dose",
      "TRTPN": 81.0,
      "AGE": 80.0,
      "AGEGR1": "65-80",
      "AGEGR1N": 2.0,
      "RACE": "WHITE",
      "RACEN": 1.0,
      "SEX": "F",
      "ITTFL": "Y",
      "EFFFL": "Y",
      "COMP24FL": "N",
      "AVISIT": "Week 16",
      "AVISITN": 16.0,
      "VISIT": "WEEK 8",
      "VISITNUM": 8.0,
      "ADY": 69.0,
      "ADT": 19813.0,
      "PARAMCD": "CIBICVAL",
      "PARAM": "CIBIC Score",
      "PARAMN": 1.0,
      "AVAL": 4.0,
      "ANL01FL": "Y",
      "DTYPE": "LOCF",
      "AWRANGE": "85-140",
      "AWTARGET": 112.0,
      "AWTDIFF": 43.0,
      "AWLO": 85.0,
      "AWHI": 140.0,
      "AWU": "DAYS",
      "QSSEQ": 6001.0
    },
    {
      "STUDYID": "CDISCPILOT01",
      "SITEID": "704",
      "SITEGR1": "704",
      "USUBJID": "01-704-1074",
      "TRTSDT": 19745.0,
      "TRTEDT": 19802.0,
      "TRTP": "Xanomeline High Dose",
      "TRTPN": 81.0,
      "AGE": 80.0,
      "AGEGR1": "65-80",
      "AGEGR1N": 2.0,
      "RACE": "WHITE",
      "RACEN": 1.0,
      "SEX": "F",
      "ITTFL": "Y",
      "EFFFL": "Y",
      "COMP24FL": "N",
      "AVISIT": "Week 24",
      "AVISITN": 24.0,
      "VISIT": "WEEK 8",
      "VISITNUM": 8.0,
      "ADY": 69.0,
      "ADT": 19813.0,
      "PARAMCD": "CIBICVAL",
      "PARAM": "CIBIC Score",
      "PARAMN": 1.0,
      "AVAL": 4.0,
      "ANL01FL": "Y",
      "DTYPE": "LOCF",
      "AWRANGE": ">140",
      "AWTARGET": 168.0,
      "AWTDIFF": 99.0,
      "AWLO": 141.0,
      "AWHI": 220.0,
      "AWU": "DAYS",
      "QSSEQ": 6001.0
    },
    {
      "STUDYID": "CDISCPILOT01",
      "SITEID": "704",
      "SITEGR1": "704",
      "USUBJID": "01-704-1093",
      "TRTSDT": 19432.0,
      "TRTEDT": 19526.0,
      "TRTP": "Xanomeline High Dose",
      "TRTPN": 81.0,
      "AGE": 79.0,
      "AGEGR1": "65-80",
      "AGEGR1N": 2.0,
      "RACE": "WHITE",
      "RACEN": 1.0,
      "SEX": "M",
      "ITTFL": "Y",
      "EFFFL": "Y",
      "COMP24FL": "N",
      "AVISIT": "Week 8",
      "AVISITN": 8.0,
      "VISIT": "WEEK 8",
      "VISITNUM": 8.0,
      "ADY": 58.0,
      "ADT": 19489.0,
      "PARAMCD": "CIBICVAL",
      "PARAM": "CIBIC Score",
      "PARAMN": 1.0,
      "AVAL": 4.0,
      "ANL01FL": "Y",
      "DTYPE": "",
      "AWRANGE": "2-84",
      "AWTARGET": 56.0,
      "AWTDIFF": 2.0,
      "AWLO": 2.0,
      "AWHI": 84.0,
      "AWU": "DAYS",
      "QSSEQ": 6001.0
    },
    {
      "STUDYID": "CDISCPILOT01",
      "SITEID": "704",
      "SITEGR1": "704",
      "USUBJID": "01-704-1093",
      "TRTSDT": 19432.0,
      "TRTEDT": 19526.0,
      "TRTP": "Xanomeline High Dose",
      "TRTPN": 81.0,
      "AGE": 79.0,
      "AGEGR1": "65-80",
      "AGEGR1N": 2.0,
      "RACE": "WHITE",
      "RACEN": 1.0,
      "SEX": "M",
      "ITTFL": "Y",
      "EFFFL": "Y",
      "COMP24FL": "N",
      "AVISIT": "Week 16",
      "AVISITN": 16.0,
      "VISIT": "WEEK 16",
      "VISITNUM": 10.0,
      "ADY": 98.0,
      "ADT": 19529.0,
      "PARAMCD": "CIBICVAL",
      "PARAM": "CIBIC Score",
      "PARAMN": 1.0,
      "AVAL": 4.0,
      "ANL01FL": "Y",
      "DTYPE": "",
      "AWRANGE": "85-140",
      "AWTARGET": 112.0,
      "AWTDIFF": 14.0,
      "AWLO": 85.0,
      "AWHI": 140.0,
      "AWU": "DAYS",
      "QSSEQ": 6002.0
    },
    {
      "STUDYID": "CDISCPILOT01",
      "SITEID": "704",
      "SITEGR1": "704",
      "USUBJID": "01-704-1093",
      "TRTSDT": 19432.0,
      "TRTEDT": 19526.0,
      "TRTP": "Xanomeline High Dose",
      "TRTPN": 81.0,
      "AGE": 79.0,
      "AGEGR1": "65-80",
      "AGEGR1N": 2.0,
      "RACE": "WHITE",
      "RACEN": 1.0,
      "SEX": "M",
      "ITTFL": "Y",
      "EFFFL": "Y",
      "COMP24FL": "N",
      "AVISIT": "Week 24",
      "AVISITN": 24.0,
      "VISIT": "RETRIEVAL",
      "VISITNUM": 201.0,
      "ADY": 286.0,
      "ADT": 19717.0,
      "PARAMCD": "CIBICVAL",
      "PARAM": "CIBIC Score",
      "PARAMN": 1.0,
      "AVAL": 6.0,
      "ANL01FL": "Y",
      "DTYPE": "",
      "AWRANGE": ">140",
      "AWTARGET": 168.0,
      "AWTDIFF": 118.0,
      "AWLO": 141.0,
      "AWHI": 220.0,
      "AWU": "DAYS",
      "QSSEQ": 6003.0
    },
    {
      "STUDYID": "CDISCPILOT01",
      "SITEID": "704",
      "SITEGR1": "704",
      "USUBJID": "01-704-1114",
      "TRTSDT": 19381.0,
      "TRTEDT": 19546.0,
      "TRTP": "Xanomeline Low Dose",
      "TRTPN": 54.0,
      "AGE": 77.0,
      "AGEGR1": "65-80",
      "AGEGR1N": 2.0,
      "RACE": "WHITE",
      "RACEN": 1.0,
      "SEX": "M",
      "ITTFL": "Y",
      "EFFFL": "Y",
      "COMP24FL": "Y",
      "AVISIT": "Week 8",
      "AVISITN": 8.0,
      "VISIT": "WEEK 8",
      "VISITNUM": 8.0,
      "ADY": 63.0,
      "ADT": 19443.0,
      "PARAMCD": "CIBICVAL",
      "PARAM": "CIBIC Score",
      "PARAMN": 1.0,
      "AVAL": 4.0,
      "ANL01FL": "Y",
      "DTYPE": "",
      "AWRANGE": "2-84",
      "AWTARGET": 56.0,
      "AWTDIFF": 7.0,
      "AWLO": 2.0,
      "AWHI": 84.0,
      "AWU": "DAYS",
      "QSSEQ": 6001.0
    },
    {
      "STUDYID": "CDISCPILOT01",
      "SITEID": "704",
      "SITEGR1": "704",
      "USUBJID": "01-704-1114",
      "TRTSDT": 19381.0,
      "TRTEDT": 19546.0,
      "TRTP": "Xanomeline Low Dose",
      "TRTPN": 54.0,
      "AGE": 77.0,
      "AGEGR1": "65-80",
      "AGEGR1N": 2.0,
      "RACE": "WHITE",
      "RACEN": 1.0,
      "SEX": "M",
      "ITTFL": "Y",
      "EFFFL": "Y",
      "COMP24FL": "Y",
      "AVISIT": "Week 16",
      "AVISITN": 16.0,
      "VISIT": "WEEK 16",
      "VISITNUM": 10.0,
      "ADY": 112.0,
      "ADT": 19492.0,
      "PARAMCD": "CIBICVAL",
      "PARAM": "CIBIC Score",
      "PARAMN": 1.0,
      "AVAL": 4.0,
      "ANL01FL": "Y",
      "DTYPE": "",
      "AWRANGE": "85-140",
      "AWTARGET": 112.0,
      "AWTDIFF": 5.397605346934028e-79,
      "AWLO": 85.0,
      "AWHI": 140.0,
      "AWU": "DAYS",
      "QSSEQ": 6002.0
    },
    {
      "STUDYID": "CDISCPILOT01",
      "SITEID": "704",
      "SITEGR1": "704",
      "USUBJID": "01-704-1114",
      "TRTSDT": 19381.0,
      "TRTEDT": 19546.0,
      "TRTP": "Xanomeline Low Dose",
      "TRTPN": 54.0,
      "AGE": 77.0,
      "AGEGR1": "65-80",
      "AGEGR1N": 2.0,
      "RACE": "WHITE",
      "RACEN": 1.0,
      "SEX": "M",
      "ITTFL": "Y",
      "EFFFL": "Y",
      "COMP24FL": "Y",
      "AVISIT": "Week 24",
      "AVISITN": 24.0,
      "VISIT": "WEEK 24",
      "VISITNUM": 12.0,
      "ADY": 167.0,
      "ADT": 19547.0,
      "PARAMCD": "CIBICVAL",
      "PARAM": "CIBIC Score",
      "PARAMN": 1.0,
      "AVAL": 4.0,
      "ANL01FL": "Y",
      "DTYPE": "",
      "AWRANGE": ">140",
      "AWTARGET": 168.0,
      "AWTDIFF": 1.0,
      "AWLO": 141.0,
      "AWHI": 220.0,
      "AWU": "DAYS",
      "QSSEQ": 6003.0
    },
    {
      "STUDYID": "CDISCPILOT01",
      "SITEID": "704",
      "SITEGR1": "704",
      "USUBJID": "01-704-1120",
      "TRTSDT": 19694.0,
      "TRTEDT": 19755.0,
      "TRTP": "Xanomeline Low Dose",
      "TRTPN": 54.0,
      "AGE": 71.0,
      "AGEGR1": "65-80",
      "AGEGR1N": 2.0,
      "RACE": "WHITE",
      "RACEN": 1.0,
      "SEX": "F",
      "ITTFL": "Y",
      "EFFFL": "Y",
      "COMP24FL": "N",
      "AVISIT": "Week 8",
      "AVISITN": 8.0,
      "VISIT": "WEEK 8",
      "VISITNUM": 8.0,
      "ADY": 57.0,
      "ADT": 19750.0,
      "PARAMCD": "CIBICVAL",
      "PARAM": "CIBIC Score",
      "PARAMN": 1.0,
      "AVAL": 4.0,
      "ANL01FL": "Y",
      "DTYPE": "",
      "AWRANGE": "2-84",
      "AWTARGET": 56.0,
      "AWTDIFF": 1.0,
      "AWLO": 2.0,
      "AWHI": 84.0,
      "AWU": "DAYS",
      "QSSEQ": 6001.0
    },
    {
      "STUDYID": "CDISCPILOT01",
      "SITEID": "704",
      "SITEGR1": "704",
      "USUBJID": "01-704-1120",
      "TRTSDT": 19694.0,
      "TRTEDT": 19755.0,
      "TRTP": "Xanomeline Low Dose",
      "TRTPN": 54.0,
      "AGE": 71.0,
      "AGEGR1": "65-80",
      "AGEGR1N": 2.0,
      "RACE": "WHITE",
      "RACEN": 1.0,
      "SEX": "F",
      "ITTFL": "Y",
      "EFFFL": "Y",
      "COMP24FL": "N",
      "AVISIT": "Week 8",
      "AVISITN": 8.0,
      "VISIT": "WEEK 12",
      "VISITNUM": 9.0,
      "ADY": 64.0,
      "ADT": 19757.0,
      "PARAMCD": "CIBICVAL",
      "PARAM": "CIBIC Score",
      "PARAMN": 1.0,
      "AVAL": 4.0,
      "ANL01FL": "",
      "DTYPE": "",
      "AWRANGE": "2-84",
      "AWTARGET": 56.0,
      "AWTDIFF": 8.0,
      "AWLO": 2.0,
      "AWHI": 84.0,
      "AWU": "DAYS",
      "QSSEQ": 6002.0
    },
    {
      "STUDYID": "CDISCPILOT01",
      "SITEID": "704",
      "SITEGR1": "704",
      "USUBJID": "01-704-1120",
      "TRTSDT": 19694.0,
      "TRTEDT": 19755.0,
      "TRTP": "Xanomeline Low Dose",
      "TRTPN": 54.0,
      "AGE": 71.0,
      "AGEGR1": "65-80",
      "AGEGR1N": 2.0,
      "RACE": "WHITE",
      "RACEN": 1.0,
      "SEX": "F",
      "ITTFL": "Y",
      "EFFFL": "Y",
      "COMP24FL": "N",
      "AVISIT": "Week 16",
      "AVISITN": 16.0,
      "VISIT": "WEEK 12",
      "VISITNUM": 9.0,
      "ADY": 64.0,
      "ADT": 19757.0,
      "PARAMCD": "CIBICVAL",
      "PARAM": "CIBIC Score",
      "PARAMN": 1.0,
      "AVAL": 4.0,
      "ANL01FL": "Y",
      "DTYPE": "LOCF",
      "AWRANGE": "85-140",
      "AWTARGET": 112.0,
      "AWTDIFF": 48.0,
      "AWLO": 85.0,
      "AWHI": 140.0,
      "AWU": "DAYS",
      "QSSEQ": 6002.0
    },
    {
      "STUDYID": "CDISCPILOT01",
      "SITEID": "704",
      "SITEGR1": "704",
      "USUBJID": "01-704-1120",
      "TRTSDT": 19694.0,
      "TRTEDT": 19755.0,
      "TRTP": "Xanomeline Low Dose",
      "TRTPN": 54.0,
      "AGE": 71.0,
      "AGEGR1": "65-80",
      "AGEGR1N": 2.0,
      "RACE": "WHITE",
      "RACEN": 1.0,
      "SEX": "F",
      "ITTFL": "Y",
      "EFFFL": "Y",
      "COMP24FL": "N",
      "AVISIT": "Week 24",
      "AVISITN": 24.0,
      "VISIT": "WEEK 12",
      "VISITNUM": 9.0,
      "ADY": 64.0,
      "ADT": 19757.0,
      "PARAMCD": "CIBICVAL",
      "PARAM": "CIBIC Score",
      "PARAMN": 1.0,
      "AVAL": 4.0,
      "ANL01FL": "Y",
      "DTYPE": "LOCF",
      "AWRANGE": ">140",
      "AWTARGET": 168.0,
      "AWTDIFF": 104.0,
      "AWLO": 141.0,
      "AWHI": 220.0,
      "AWU": "DAYS",
      "QSSEQ": 6002.0
    },
    {
      "STUDYID": "CDISCPILOT01",
      "SITEID": "704",
      "SITEGR1": "704",
      "USUBJID": "01-704-1127",
      "TRTSDT": 19633.0,
      "TRTEDT": 19813.0,
      "TRTP": "Placebo",
      "TRTPN": 5.397605346934028e-79,
      "AGE": 84.0,
      "AGEGR1": ">80",
      "AGEGR1N": 3.0,
      "RACE": "WHITE",
      "RACEN": 1.0,
      "SEX": "F",
      "ITTFL": "Y",
      "EFFFL": "Y",
      "COMP24FL": "Y",
      "AVISIT": "Week 8",
      "AVISITN": 8.0,
      "VISIT": "WEEK 8",
      "VISITNUM": 8.0,
      "ADY": 56.0,
      "ADT": 19688.0,
      "PARAMCD": "CIBICVAL",
      "PARAM": "CIBIC Score",
      "PARAMN": 1.0,
      "AVAL": 4.0,
      "ANL01FL": "Y",
      "DTYPE": "",
      "AWRANGE": "2-84",
      "AWTARGET": 56.0,
      "AWTDIFF": 5.397605346934028e-79,
      "AWLO": 2.0,
      "AWHI": 84.0,
      "AWU": "DAYS",
      "QSSEQ": 6001.0
    },
    {
      "STUDYID": "CDISCPILOT01",
      "SITEID": "704",
      "SITEGR1": "704",
      "USUBJID": "01-704-1127",
      "TRTSDT": 19633.0,
      "TRTEDT": 19813.0,
      "TRTP": "Placebo",
      "TRTPN": 5.397605346934028e-79,
      "AGE": 84.0,
      "AGEGR1": ">80",
      "AGEGR1N": 3.0,
      "RACE": "WHITE",
      "RACEN": 1.0,
      "SEX": "F",
      "ITTFL": "Y",
      "EFFFL": "Y",
      "COMP24FL": "Y",
      "AVISIT": "Week 16",
      "AVISITN": 16.0,
      "VISIT": "WEEK 16",
      "VISITNUM": 10.0,
      "ADY": 112.0,
      "ADT": 19744.0,
      "PARAMCD": "CIBICVAL",
      "PARAM": "CIBIC Score",
      "PARAMN": 1.0,
      "AVAL": 5.0,
      "ANL01FL": "Y",
      "DTYPE": "",
      "AWRANGE": "85-140",
      "AWTARGET": 112.0,
      "AWTDIFF": 5.397605346934028e-79,
      "AWLO": 85.0,
      "AWHI": 140.0,
      "AWU": "DAYS",
      "QSSEQ": 6002.0
    },
    {
      "STUDYID": "CDISCPILOT01",
      "SITEID": "704",
      "SITEGR1": "704",
      "USUBJID": "01-704-1127",
      "TRTSDT": 19633.0,
      "TRTEDT": 19813.0,
      "TRTP": "Placebo",
      "TRTPN": 5.397605346934028e-79,
      "AGE": 84.0,
      "AGEGR1": ">80",
      "AGEGR1N": 3.0,
      "RACE": "WHITE",
      "RACEN": 1.0,
      "SEX": "F",
      "ITTFL": "Y",
      "EFFFL": "Y",
      "COMP24FL": "Y",
      "AVISIT": "Week 24",
      "AVISITN": 24.0,
      "VISIT": "WEEK 24",
      "VISITNUM": 12.0,
      "ADY": 167.0,
      "ADT": 19799.0,
      "PARAMCD": "CIBICVAL",
      "PARAM": "CIBIC Score",
      "PARAMN": 1.0,
      "AVAL": 5.0,
      "ANL01FL": "Y",
      "DTYPE": "",
      "AWRANGE": ">140",
      "AWTARGET": 168.0,
      "AWTDIFF": 1.0,
      "AWLO": 141.0,
      "AWHI": 220.0,
      "AWU": "DAYS",
      "QSSEQ": 6003.0
    },
    {
      "STUDYID": "CDISCPILOT01",
      "SITEID": "704",
      "SITEGR1": "704",
      "USUBJID": "01-704-1135",
      "TRTSDT": 19662.0,
      "TRTEDT": 19859.0,
      "TRTP": "Xanomeline Low Dose",
      "TRTPN": 54.0,
      "AGE": 74.0,
      "AGEGR1": "65-80",
      "AGEGR1N": 2.0,
      "RACE": "WHITE",
      "RACEN": 1.0,
      "SEX": "F",
      "ITTFL": "Y",
      "EFFFL": "Y",
      "COMP24FL": "Y",
      "AVISIT": "Week 8",
      "AVISITN": 8.0,
      "VISIT": "WEEK 8",
      "VISITNUM": 8.0,
      "ADY": 56.0,
      "ADT": 19717.0,
      "PARAMCD": "CIBICVAL",
      "PARAM": "CIBIC Score",
      "PARAMN": 1.0,
      "AVAL": 4.0,
      "ANL01FL": "Y",
      "DTYPE": "",
      "AWRANGE": "2-84",
      "AWTARGET": 56.0,
      "AWTDIFF": 5.397605346934028e-79,
      "AWLO": 2.0,
      "AWHI": 84.0,
      "AWU": "DAYS",
      "QSSEQ": 6001.0
    },
    {
      "STUDYID": "CDISCPILOT01",
      "SITEID": "704",
      "SITEGR1": "704",
      "USUBJID": "01-704-1135",
      "TRTSDT": 19662.0,
      "TRTEDT": 19859.0,
      "TRTP": "Xanomeline Low Dose",
      "TRTPN": 54.0,
      "AGE": 74.0,
      "AGEGR1": "65-80",
      "AGEGR1N": 2.0,
      "RACE": "WHITE",
      "RACEN": 1.0,
      "SEX": "F",
      "ITTFL": "Y",
      "EFFFL": "Y",
      "COMP24FL": "Y",
      "AVISIT": "Week 16",
      "AVISITN": 16.0,
      "VISIT": "WEEK 16",
      "VISITNUM": 10.0,
      "ADY": 112.0,
      "ADT": 19773.0,
      "PARAMCD": "CIBICVAL",
      "PARAM": "CIBIC Score",
      "PARAMN": 1.0,
      "AVAL": 4.0,
      "ANL01FL": "Y",
      "DTYPE": "",
      "AWRANGE": "85-140",
      "AWTARGET": 112.0,
      "AWTDIFF": 5.397605346934028e-79,
      "AWLO": 85.0,
      "AWHI": 140.0,
      "AWU": "DAYS",
      "QSSEQ": 6002.0
    },
    {
      "STUDYID": "CDISCPILOT01",
      "SITEID": "704",
      "SITEGR1": "704",
      "USUBJID": "01-704-1135",
      "TRTSDT": 19662.0,
      "TRTEDT": 19859.0,
      "TRTP": "Xanomeline Low Dose",
      "TRTPN": 54.0,
      "AGE": 74.0,
      "AGEGR1": "65-80",
      "AGEGR1N": 2.0,
      "RACE": "WHITE",
      "RACEN": 1.0,
      "SEX": "F",
      "ITTFL": "Y",
      "EFFFL": "Y",
      "COMP24FL": "Y",
      "AVISIT": "Week 24",
      "AVISITN": 24.0,
      "VISIT": "WEEK 24",
      "VISITNUM": 12.0,
      "ADY": 183.0,
      "ADT": 19844.0,
      "PARAMCD": "CIBICVAL",
      "PARAM": "CIBIC Score",
      "PARAMN": 1.0,
      "AVAL": 6.0,
      "ANL01FL": "Y",
      "DTYPE": "",
      "AWRANGE": ">140",
      "AWTARGET": 168.0,
      "AWTDIFF": 15.0,
      "AWLO": 141.0,
      "AWHI": 220.0,
      "AWU": "DAYS",
      "QSSEQ": 6003.0
    },
    {
      "STUDYID": "CDISCPILOT01",
      "SITEID": "704",
      "SITEGR1": "704",
      "USUBJID": "01-704-1164",
      "TRTSDT": 19255.0,
      "TRTEDT": 19452.0,
      "TRTP": "Placebo",
      "TRTPN": 5.397605346934028e-79,
      "AGE": 67.0,
      "AGEGR1": "65-80",
      "AGEGR1N": 2.0,
      "RACE": "WHITE",
      "RACEN": 1.0,
      "SEX": "F",
      "ITTFL": "Y",
      "EFFFL": "Y",
      "COMP24FL": "Y",
      "AVISIT": "Week 8",
      "AVISITN": 8.0,
      "VISIT": "WEEK 8",
      "VISITNUM": 8.0,
      "ADY": 58.0,
      "ADT": 19312.0,
      "PARAMCD": "CIBICVAL",
      "PARAM": "CIBIC Score",
      "PARAMN": 1.0,
      "AVAL": 4.0,
      "ANL01FL": "Y",
      "DTYPE": "",
      "AWRANGE": "2-84",
      "AWTARGET": 56.0,
      "AWTDIFF": 2.0,
      "AWLO": 2.0,
      "AWHI": 84.0,
      "AWU": "DAYS",
      "QSSEQ": 6001.0
    },
    {
      "STUDYID": "CDISCPILOT01",
      "SITEID": "704",
      "SITEGR1": "704",
      "USUBJID": "01-704-1164",
      "TRTSDT": 19255.0,
      "TRTEDT": 19452.0,
      "TRTP": "Placebo",
      "TRTPN": 5.397605346934028e-79,
      "AGE": 67.0,
      "AGEGR1": "65-80",
      "AGEGR1N": 2.0,
      "RACE": "WHITE",
      "RACEN": 1.0,
      "SEX": "F",
      "ITTFL": "Y",
      "EFFFL": "Y",
      "COMP24FL": "Y",
      "AVISIT": "Week 16",
      "AVISITN": 16.0,
      "VISIT": "WEEK 16",
      "VISITNUM": 10.0,
      "ADY": 118.0,
      "ADT": 19372.0,
      "PARAMCD": "CIBICVAL",
      "PARAM": "CIBIC Score",
      "PARAMN": 1.0,
      "AVAL": 5.0,
      "ANL01FL": "Y",
      "DTYPE": "",
      "AWRANGE": "85-140",
      "AWTARGET": 112.0,
      "AWTDIFF": 6.0,
      "AWLO": 85.0,
      "AWHI": 140.0,
      "AWU": "DAYS",
      "QSSEQ": 6002.0
    },
    {
      "STUDYID": "CDISCPILOT01",
      "SITEID": "704",
      "SITEGR1": "704",
      "USUBJID": "01-704-1164",
      "TRTSDT": 19255.0,
      "TRTEDT": 19452.0,
      "TRTP": "Placebo",
      "TRTPN": 5.397605346934028e-79,
      "AGE": 67.0,
      "AGEGR1": "65-80",
      "AGEGR1N": 2.0,
      "RACE": "WHITE",
      "RACEN": 1.0,
      "SEX": "F",
      "ITTFL": "Y",
      "EFFFL": "Y",
      "COMP24FL": "Y",
      "AVISIT": "Week 24",
      "AVISITN": 24.0,
      "VISIT": "WEEK 24",
      "VISITNUM": 12.0,
      "ADY": 180.0,
      "ADT": 19434.0,
      "PARAMCD": "CIBICVAL",
      "PARAM": "CIBIC Score",
      "PARAMN": 1.0,
      "AVAL": 5.0,
      "ANL01FL": "Y",
      "DTYPE": "",
      "AWRANGE": ">140",
      "AWTARGET": 168.0,
      "AWTDIFF": 12.0,
      "AWLO": 141.0,
      "AWHI": 220.0,
      "AWU": "DAYS",
      "QSSEQ": 6003.0
    },
    {
      "STUDYID": "CDISCPILOT01",
      "SITEID": "704",
      "SITEGR1": "704",
      "USUBJID": "01-704-1218",
      "TRTSDT": 19316.0,
      "TRTEDT": 19505.0,
      "TRTP": "Xanomeline Low Dose",
      "TRTPN": 54.0,
      "AGE": 81.0,
      "AGEGR1": ">80",
      "AGEGR1N": 3.0,
      "RACE": "WHITE",
      "RACEN": 1.0,
      "SEX": "F",
      "ITTFL": "Y",
      "EFFFL": "Y",
      "COMP24FL": "Y",
      "AVISIT": "Week 8",
      "AVISITN": 8.0,
      "VISIT": "WEEK 8",
      "VISITNUM": 8.0,
      "ADY": 57.0,
      "ADT": 19372.0,
      "PARAMCD": "CIBICVAL",
      "PARAM": "CIBIC Score",
      "PARAMN": 1.0,
      "AVAL": 5.0,
      "ANL01FL": "Y",
      "DTYPE": "",
      "AWRANGE": "2-84",
      "AWTARGET": 56.0,
      "AWTDIFF": 1.0,
      "AWLO": 2.0,
      "AWHI": 84.0,
      "AWU": "DAYS",
      "QSSEQ": 6001.0
    },
    {
      "STUDYID": "CDISCPILOT01",
      "SITEID": "704",
      "SITEGR1": "704",
      "USUBJID": "01-704-1218",
      "TRTSDT": 19316.0,
      "TRTEDT": 19505.0,
      "TRTP": "Xanomeline Low Dose",
      "TRTPN": 54.0,
      "AGE": 81.0,
      "AGEGR1": ">80",
      "AGEGR1N": 3.0,
      "RACE": "WHITE",
      "RACEN": 1.0,
      "SEX": "F",
      "ITTFL": "Y",
      "EFFFL": "Y",
      "COMP24FL": "Y",
      "AVISIT": "Week 16",
      "AVISITN": 16.0,
      "VISIT": "WEEK 16",
      "VISITNUM": 10.0,
      "ADY": 120.0,
      "ADT": 19435.0,
      "PARAMCD": "CIBICVAL",
      "PARAM": "CIBIC Score",
      "PARAMN": 1.0,
      "AVAL": 5.0,
      "ANL01FL": "Y",
      "DTYPE": "",
      "AWRANGE": "85-140",
      "AWTARGET": 112.0,
      "AWTDIFF": 8.0,
      "AWLO": 85.0,
      "AWHI": 140.0,
      "AWU": "DAYS",
      "QSSEQ": 6002.0
    },
    {
      "STUDYID": "CDISCPILOT01",
      "SITEID": "704",
      "SITEGR1": "704",
      "USUBJID": "01-704-1218",
      "TRTSDT": 19316.0,
      "TRTEDT": 19505.0,
      "TRTP": "Xanomeline Low Dose",
      "TRTPN": 54.0,
      "AGE": 81.0,
      "AGEGR1": ">80",
      "AGEGR1N": 3.0,
      "RACE": "WHITE",
      "RACEN": 1.0,
      "SEX": "F",
      "ITTFL": "Y",
      "EFFFL": "Y",
      "COMP24FL": "Y",
      "AVISIT": "Week 24",
      "AVISITN": 24.0,
      "VISIT": "WEEK 24",
      "VISITNUM": 12.0,
      "ADY": 176.0,
      "ADT": 19491.0,
      "PARAMCD": "CIBICVAL",
      "PARAM": "CIBIC Score",
      "PARAMN": 1.0,
      "AVAL": 5.0,
      "ANL01FL": "Y",
      "DTYPE": "",
      "AWRANGE": ">140",
      "AWTARGET": 168.0,
      "AWTDIFF": 8.0,
      "AWLO": 141.0,
      "AWHI": 220.0,
      "AWU": "DAYS",
      "QSSEQ": 6003.0
    },
    {
      "STUDYID": "CDISCPILOT01",
      "SITEID": "704",
      "SITEGR1": "704",
      "USUBJID": "01-704-1233",
      "TRTSDT": 19438.0,
      "TRTEDT": 19553.0,
      "TRTP": "Placebo",
      "TRTPN": 5.397605346934028e-79,
      "AGE": 87.0,
      "AGEGR1": ">80",
      "AGEGR1N": 3.0,
      "RACE": "WHITE",
      "RACEN": 1.0,
      "SEX": "F",
      "ITTFL": "Y",
      "EFFFL": "Y",
      "COMP24FL": "N",
      "AVISIT": "Week 16",
      "AVISITN": 16.0,
      "VISIT": "WEEK 16",
      "VISITNUM": 10.0,
      "ADY": 113.0,
      "ADT": 19550.0,
      "PARAMCD": "CIBICVAL",
      "PARAM": "CIBIC Score",
      "PARAMN": 1.0,
      "AVAL": 5.0,
      "ANL01FL": "Y",
      "DTYPE": "",
      "AWRANGE": "85-140",
      "AWTARGET": 112.0,
      "AWTDIFF": 1.0,
      "AWLO": 85.0,
      "AWHI": 140.0,
      "AWU": "DAYS",
      "QSSEQ": 6001.0
    },
    {
      "STUDYID": "CDISCPILOT01",
      "SITEID": "704",
      "SITEGR1": "704",
      "USUBJID": "01-704-1233",
      "TRTSDT": 19438.0,
      "TRTEDT": 19553.0,
      "TRTP": "Placebo",
      "TRTPN": 5.397605346934028e-79,
      "AGE": 87.0,
      "AGEGR1": ">80",
      "AGEGR1N": 3.0,
      "RACE": "WHITE",
      "RACEN": 1.0,
      "SEX": "F",
      "ITTFL": "Y",
      "EFFFL": "Y",
      "COMP24FL": "N",
      "AVISIT": "Week 24",
      "AVISITN": 24.0,
      "VISIT": "WEEK 16",
      "VISITNUM": 10.0,
      "ADY": 113.0,
      "ADT": 19550.0,
      "PARAMCD": "CIBICVAL",
      "PARAM": "CIBIC Score",
      "PARAMN": 1.0,
      "AVAL": 5.0,
      "ANL01FL": "Y",
      "DTYPE": "LOCF",
      "AWRANGE": ">140",
      "AWTARGET": 168.0,
      "AWTDIFF": 55.0,
      "AWLO": 141.0,
      "AWHI": 220.0,
      "AWU": "DAYS",
      "QSSEQ": 6001.0
    },
    {
      "STUDYID": "CDISCPILOT01",
      "SITEID": "704",
      "SITEGR1": "704",
      "USUBJID": "01-704-1241",
      "TRTSDT": 19595.0,
      "TRTEDT": 19640.0,
      "TRTP": "Xanomeline High Dose",
      "TRTPN": 81.0,
      "AGE": 86.0,
      "AGEGR1": ">80",
      "AGEGR1N": 3.0,
      "RACE": "WHITE",
      "RACEN": 1.0,
      "SEX": "M",
      "ITTFL": "Y",
      "EFFFL": "Y",
      "COMP24FL": "N",
      "AVISIT": "Week 8",
      "AVISITN": 8.0,
      "VISIT": "WEEK 8",
      "VISITNUM": 8.0,
      "ADY": 68.0,
      "ADT": 19662.0,
      "PARAMCD": "CIBICVAL",
      "PARAM": "CIBIC Score",
      "PARAMN": 1.0,
      "AVAL": 4.0,
      "ANL01FL": "Y",
      "DTYPE": "",
      "AWRANGE": "2-84",
      "AWTARGET": 56.0,
      "AWTDIFF": 12.0,
      "AWLO": 2.0,
      "AWHI": 84.0,
      "AWU": "DAYS",
      "QSSEQ": 6001.0
    },
    {
      "STUDYID": "CDISCPILOT01",
      "SITEID": "704",
      "SITEGR1": "704",
      "USUBJID": "01-704-1241",
      "TRTSDT": 19595.0,
      "TRTEDT": 19640.0,
      "TRTP": "Xanomeline High Dose",
      "TRTPN": 81.0,
      "AGE": 86.0,
      "AGEGR1": ">80",
      "AGEGR1N": 3.0,
      "RACE": "WHITE",
      "RACEN": 1.0,
      "SEX": "M",
      "ITTFL": "Y",
      "EFFFL": "Y",
      "COMP24FL": "N",
      "AVISIT": "Week 16",
      "AVISITN": 16.0,
      "VISIT": "WEEK 8",
      "VISITNUM": 8.0,
      "ADY": 68.0,
      "ADT": 19662.0,
      "PARAMCD": "CIBICVAL",
      "PARAM": "CIBIC Score",
      "PARAMN": 1.0,
      "AVAL": 4.0,
      "ANL01FL": "Y",
      "DTYPE": "LOCF",
      "AWRANGE": "85-140",
      "AWTARGET": 112.0,
      "AWTDIFF": 44.0,
      "AWLO": 85.0,
      "AWHI": 140.0,
      "AWU": "DAYS",
      "QSSEQ": 6001.0
    },
    {
      "STUDYID": "CDISCPILOT01",
      "SITEID": "704",
      "SITEGR1": "704",
      "USUBJID": "01-704-1241",
      "TRTSDT": 19595.0,
      "TRTEDT": 19640.0,
      "TRTP": "Xanomeline High Dose",
      "TRTPN": 81.0,
      "AGE": 86.0,
      "AGEGR1": ">80",
      "AGEGR1N": 3.0,
      "RACE": "WHITE",
      "RACEN": 1.0,
      "SEX": "M",
      "ITTFL": "Y",
      "EFFFL": "Y",
      "COMP24FL": "N",
      "AVISIT": "Week 24",
      "AVISITN": 24.0,
      "VISIT": "WEEK 8",
      "VISITNUM": 8.0,
      "ADY": 68.0,
      "ADT": 19662.0,
      "PARAMCD": "CIBICVAL",
      "PARAM": "CIBIC Score",
      "PARAMN": 1.0,
      "AVAL": 4.0,
      "ANL01FL": "Y",
      "DTYPE": "LOCF",
      "AWRANGE": ">140",
      "AWTARGET": 168.0,
      "AWTDIFF": 100.0,
      "AWLO": 141.0,
      "AWHI": 220.0,
      "AWU": "DAYS",
      "QSSEQ": 6001.0
    },
    {
      "STUDYID": "CDISCPILOT01",
      "SITEID": "704",
      "SITEGR1": "704",
      "USUBJID": "01-704-1260",
      "TRTSDT": 19235.0,
      "TRTEDT": 19301.0,
      "TRTP": "Placebo",
      "TRTPN": 5.397605346934028e-79,
      "AGE": 71.0,
      "AGEGR1": "65-80",
      "AGEGR1N": 2.0,
      "RACE": "WHITE",
      "RACEN": 1.0,
      "SEX": "F",
      "ITTFL": "Y",
      "EFFFL": "Y",
      "COMP24FL": "N",
      "AVISIT": "Week 8",
      "AVISITN": 8.0,
      "VISIT": "WEEK 8",
      "VISITNUM": 8.0,
      "ADY": 56.0,
      "ADT": 19290.0,
      "PARAMCD": "CIBICVAL",
      "PARAM": "CIBIC Score",
      "PARAMN": 1.0,
      "AVAL": 4.0,
      "ANL01FL": "Y",
      "DTYPE": "",
      "AWRANGE": "2-84",
      "AWTARGET": 56.0,
      "AWTDIFF": 5.397605346934028e-79,
      "AWLO": 2.0,
      "AWHI": 84.0,
      "AWU": "DAYS",
      "QSSEQ": 6001.0
    },
    {
      "STUDYID": "CDISCPILOT01",
      "SITEID": "704",
      "SITEGR1": "704",
      "USUBJID": "01-704-1260",
      "TRTSDT": 19235.0,
      "TRTEDT": 19301.0,
      "TRTP": "Placebo",
      "TRTPN": 5.397605346934028e-79,
      "AGE": 71.0,
      "AGEGR1": "65-80",
      "AGEGR1N": 2.0,
      "RACE": "WHITE",
      "RACEN": 1.0,
      "SEX": "F",
      "ITTFL": "Y",
      "EFFFL": "Y",
      "COMP24FL": "N",
      "AVISIT": "Week 16",
      "AVISITN": 16.0,
      "VISIT": "WEEK 8",
      "VISITNUM": 8.0,
      "ADY": 56.0,
      "ADT": 19290.0,
      "PARAMCD": "CIBICVAL",
      "PARAM": "CIBIC Score",
      "PARAMN": 1.0,
      "AVAL": 4.0,
      "ANL01FL": "Y",
      "DTYPE": "LOCF",
      "AWRANGE": "85-140",
      "AWTARGET": 112.0,
      "AWTDIFF": 56.0,
      "AWLO": 85.0,
      "AWHI": 140.0,
      "AWU": "DAYS",
      "QSSEQ": 6001.0
    },
    {
      "STUDYID": "CDISCPILOT01",
      "SITEID": "704",
      "SITEGR1": "704",
      "USUBJID": "01-704-1260",
      "TRTSDT": 19235.0,
      "TRTEDT": 19301.0,
      "TRTP": "Placebo",
      "TRTPN": 5.397605346934028e-79,
      "AGE": 71.0,
      "AGEGR1": "65-80",
      "AGEGR1N": 2.0,
      "RACE": "WHITE",
      "RACEN": 1.0,
      "SEX": "F",
      "ITTFL": "Y",
      "EFFFL": "Y",
      "COMP24FL": "N",
      "AVISIT": "Week 24",
      "AVISITN": 24.0,
      "VISIT": "WEEK 8",
      "VISITNUM": 8.0,
      "ADY": 56.0,
      "ADT": 19290.0,
      "PARAMCD": "CIBICVAL",
      "PARAM": "CIBIC Score",
      "PARAMN": 1.0,
      "AVAL": 4.0,
      "ANL01FL": "Y",
      "DTYPE": "LOCF",
      "AWRANGE": ">140",
      "AWTARGET": 168.0,
      "AWTDIFF": 112.0,
      "AWLO": 141.0,
      "AWHI": 220.0,
      "AWU": "DAYS",
      "QSSEQ": 6001.0
    },
    {
      "STUDYID": "CDISCPILOT01",
      "SITEID": "704",
      "SITEGR1": "704",
      "USUBJID": "01-704-1266",
      "TRTSDT": 19644.0,
      "TRTEDT": 19698.0,
      "TRTP": "Xanomeline High Dose",
      "TRTPN": 81.0,
      "AGE": 82.0,
      "AGEGR1": ">80",
      "AGEGR1N": 3.0,
      "RACE": "WHITE",
      "RACEN": 1.0,
      "SEX": "M",
      "ITTFL": "Y",
      "EFFFL": "Y",
      "COMP24FL": "N",
      "AVISIT": "Week 8",
      "AVISITN": 8.0,
      "VISIT": "WEEK 8",
      "VISITNUM": 8.0,
      "ADY": 55.0,
      "ADT": 19698.0,
      "PARAMCD": "CIBICVAL",
      "PARAM": "CIBIC Score",
      "PARAMN": 1.0,
      "AVAL": 4.0,
      "ANL01FL": "Y",
      "DTYPE": "",
      "AWRANGE": "2-84",
      "AWTARGET": 56.0,
      "AWTDIFF": 1.0,
      "AWLO": 2.0,
      "AWHI": 84.0,
      "AWU": "DAYS",
      "QSSEQ": 6001.0
    },
    {
      "STUDYID": "CDISCPILOT01",
      "SITEID": "704",
      "SITEGR1": "704",
      "USUBJID": "01-704-1266",
      "TRTSDT": 19644.0,
      "TRTEDT": 19698.0,
      "TRTP": "Xanomeline High Dose",
      "TRTPN": 81.0,
      "AGE": 82.0,
      "AGEGR1": ">80",
      "AGEGR1N": 3.0,
      "RACE": "WHITE",
      "RACEN": 1.0,
      "SEX": "M",
      "ITTFL": "Y",
      "EFFFL": "Y",
      "COMP24FL": "N",
      "AVISIT": "Week 16",
      "AVISITN": 16.0,
      "VISIT": "WEEK 8",
      "VISITNUM": 8.0,
      "ADY": 55.0,
      "ADT": 19698.0,
      "PARAMCD": "CIBICVAL",
      "PARAM": "CIBIC Score",
      "PARAMN": 1.0,
      "AVAL": 4.0,
      "ANL01FL": "Y",
      "DTYPE": "LOCF",
      "AWRANGE": "85-140",
      "AWTARGET": 112.0,
      "AWTDIFF": 57.0,
      "AWLO": 85.0,
      "AWHI": 140.0,
      "AWU": "DAYS",
      "QSSEQ": 6001.0
    },
    {
      "STUDYID": "CDISCPILOT01",
      "SITEID": "704",
      "SITEGR1": "704",
      "USUBJID": "01-704-1266",
      "TRTSDT": 19644.0,
      "TRTEDT": 19698.0,
      "TRTP": "Xanomeline High Dose",
      "TRTPN": 81.0,
      "AGE": 82.0,
      "AGEGR1": ">80",
      "AGEGR1N": 3.0,
      "RACE": "WHITE",
      "RACEN": 1.0,
      "SEX": "M",
      "ITTFL": "Y",
      "EFFFL": "Y",
      "COMP24FL": "N",
      "AVISIT": "Week 24",
      "AVISITN": 24.0,
      "VISIT": "WEEK 8",
      "VISITNUM": 8.0,
