{
  "name": "ADLBCPV",
  "total_rows": 37132,
  "unique_subjects": 254,
  "columns": [
    {
      "name": "STUDYID",
      "type": "string"
    },
    {
      "name": "SUBJID",
      "type": "string"
    },
    {
      "name": "USUBJID",
      "type": "string"
    },
    {
      "name": "TRTP",
      "type": "string"
    },
    {
      "name": "TRTPN",
      "type": "number"
    },
    {
      "name": "TRTA",
      "type": "string"
    },
    {
      "name": "TRTAN",
      "type": "number"
    },
    {
      "name": "TRTSDT",
      "type": "number"
    },
    {
      "name": "TRTEDT",
      "type": "number"
    },
    {
      "name": "AGE",
      "type": "number"
    },
    {
      "name": "AGEGR1",
      "type": "string"
    },
    {
      "name": "AGEGR1N",
      "type": "number"
    },
    {
      "name": "RACE",
      "type": "string"
    },
    {
      "name": "RACEN",
      "type": "number"
    },
    {
      "name": "SEX",
      "type": "string"
    },
    {
      "name": "COMP24FL",
      "type": "string"
    },
    {
      "name": "DSRAEFL",
      "type": "string"
    },
    {
      "name": "SAFFL",
      "type": "string"
    },
    {
      "name": "AVISIT",
      "type": "string"
    },
    {
      "name": "AVISITN",
      "type": "number"
    },
    {
      "name": "ADY",
      "type": "number"
    },
    {
      "name": "ADT",
      "type": "number"
    },
    {
      "name": "VISIT",
      "type": "string"
    },
    {
      "name": "VISITNUM",
      "type": "number"
    },
    {
      "name": "PARAM",
      "type": "string"
    },
    {
      "name": "PARAMCD",
      "type": "string"
    },
    {
      "name": "PARAMN",
      "type": "number"
    },
    {
      "name": "PARCAT1",
      "type": "string"
    },
    {
      "name": "AVAL",
      "type": "number"
    },
    {
      "name": "BASE",
      "type": "string"
    },
    {
      "name": "CHG",
      "type": "string"
    },
    {
      "name": "A1LO",
      "type": "string"
    },
    {
      "name": "A1HI",
      "type": "string"
    },
    {
      "name": "R2A1LO",
      "type": "string"
    },
    {
      "name": "R2A1HI",
      "type": "string"
    },
    {
      "name": "BR2A1LO",
      "type": "string"
    },
    {
      "name": "BR2A1HI",
      "type": "string"
    },
    {
      "name": "ANL01FL",
      "type": "string"
    },
    {
      "name": "ALBTRVAL",
      "type": "number"
    },
    {
      "name": "ANRIND",
      "type": "string"
    },
    {
      "name": "BNRIND",
      "type": "string"
    },
    {
      "name": "ABLFL",
      "type": "string"
    },
    {
      "name": "AENTMTFL",
      "type": "string"
    },
    {
      "name": "LBSEQ",
      "type": "number"
    },
    {
      "name": "LBNRIND",
      "type": "string"
    },
    {
      "name": "LBSTRESN",
      "type": "number"
    }
  ],
  "rows": [
    {
      "STUDYID": "CDISCPILOT01",
      "SUBJID": "1015",
      "USUBJID": "01-701-1015",
      "TRTP": "Placebo",
      "TRTPN": 5.397605346934028e-79,
      "TRTA": "Placebo",
      "TRTAN": 5.397605346934028e-79,
      "TRTSDT": 19725.0,
      "TRTEDT": 19906.0,
      "AGE": 63.0,
      "AGEGR1": "<65",
      "AGEGR1N": 1.0,
      "RACE": "WHITE",
      "RACEN": 1.0,
      "SEX": "F",
      "COMP24FL": "Y",
      "DSRAEFL": "",
      "SAFFL": "Y",
      "AVISIT": "Baseline",
      "AVISITN": 5.397605346934028e-79,
      "ADY": -7.0,
      "ADT": 19718.0,
      "VISIT": "SCREENING 1",
      "VISITNUM": 1.0,
      "PARAM": "Sodium (mmol/L) change from previous visit, relative to normal range",
      "PARAMCD": "_SODIUM",
      "PARAMN": 118.0,
      "PARCAT1": "CHEM",
      "AVAL": NaN,
      "BASE": null,
      "CHG": null,
      "A1LO": null,
      "A1HI": null,
      "R2A1LO": null,
      "R2A1HI": null,
      "BR2A1LO": null,
      "BR2A1HI": null,
      "ANL01FL": "",
      "ALBTRVAL": 77.5,
      "ANRIND": "",
      "BNRIND": "",
      "ABLFL": "",
      "AENTMTFL": "",
      "LBSEQ": 27.0,
      "LBNRIND": "NORMAL",
      "LBSTRESN": 140.0
    },
    {
      "STUDYID": "CDISCPILOT01",
      "SUBJID": "1015",
      "USUBJID": "01-701-1015",
      "TRTP": "Placebo",
      "TRTPN": 5.397605346934028e-79,
      "TRTA": "Placebo",
      "TRTAN": 5.397605346934028e-79,
      "TRTSDT": 19725.0,
      "TRTEDT": 19906.0,
      "AGE": 63.0,
      "AGEGR1": "<65",
      "AGEGR1N": 1.0,
      "RACE": "WHITE",
      "RACEN": 1.0,
      "SEX": "F",
      "COMP24FL": "Y",
      "DSRAEFL": "",
      "SAFFL": "Y",
      "AVISIT": "Baseline",
      "AVISITN": 5.397605346934028e-79,
      "ADY": -7.0,
      "ADT": 19718.0,
      "VISIT": "SCREENING 1",
      "VISITNUM": 1.0,
      "PARAM": "Potassium (mmol/L) change from previous visit, relative to normal range",
      "PARAMCD": "_K",
      "PARAMN": 119.0,
      "PARCAT1": "CHEM",
      "AVAL": NaN,
      "BASE": null,
      "CHG": null,
      "A1LO": null,
      "A1HI": null,
      "R2A1LO": null,
      "R2A1HI": null,
      "BR2A1LO": null,
      "BR2A1HI": null,
      "ANL01FL": "",
      "ALBTRVAL": 3.5999999999999996,
      "ANRIND": "",
      "BNRIND": "",
      "ABLFL": "",
      "AENTMTFL": "",
      "LBSEQ": 20.0,
      "LBNRIND": "NORMAL",
      "LBSTRESN": 4.5
    },
    {
      "STUDYID": "CDISCPILOT01",
      "SUBJID": "1015",
      "USUBJID": "01-701-1015",
      "TRTP": "Placebo",
      "TRTPN": 5.397605346934028e-79,
      "TRTA": "Placebo",
      "TRTAN": 5.397605346934028e-79,
      "TRTSDT": 19725.0,
      "TRTEDT": 19906.0,
      "AGE": 63.0,
      "AGEGR1": "<65",
      "AGEGR1N": 1.0,
      "RACE": "WHITE",
      "RACEN": 1.0,
      "SEX": "F",
      "COMP24FL": "Y",
      "DSRAEFL": "",
      "SAFFL": "Y",
      "AVISIT": "Baseline",
      "AVISITN": 5.397605346934028e-79,
      "ADY": -7.0,
      "ADT": 19718.0,
      "VISIT": "SCREENING 1",
      "VISITNUM": 1.0,
      "PARAM": "Chloride (mmol/L) change from previous visit, relative to normal range",
      "PARAMCD": "_CL",
      "PARAMN": 120.0,
      "PARCAT1": "CHEM",
      "AVAL": NaN,
      "BASE": null,
      "CHG": null,
      "A1LO": null,
      "A1HI": null,
      "R2A1LO": null,
      "R2A1HI": null,
      "BR2A1LO": null,
      "BR2A1HI": null,
      "ANL01FL": "",
      "ALBTRVAL": 62.0,
      "ANRIND": "",
      "BNRIND": "",
      "ABLFL": "",
      "AENTMTFL": "",
      "LBSEQ": 12.0,
      "LBNRIND": "NORMAL",
      "LBSTRESN": 106.0
    },
    {
      "STUDYID": "CDISCPILOT01",
      "SUBJID": "1015",
      "USUBJID": "01-701-1015",
      "TRTP": "Placebo",
      "TRTPN": 5.397605346934028e-79,
      "TRTA": "Placebo",
      "TRTAN": 5.397605346934028e-79,
      "TRTSDT": 19725.0,
      "TRTEDT": 19906.0,
      "AGE": 63.0,
      "AGEGR1": "<65",
      "AGEGR1N": 1.0,
      "RACE": "WHITE",
      "RACEN": 1.0,
      "SEX": "F",
      "COMP24FL": "Y",
      "DSRAEFL": "",
      "SAFFL": "Y",
      "AVISIT": "Baseline",
      "AVISITN": 5.397605346934028e-79,
      "ADY": -7.0,
      "ADT": 19718.0,
      "VISIT": "SCREENING 1",
      "VISITNUM": 1.0,
      "PARAM": "Bilirubin (umol/L) change from previous visit, relative to normal range",
      "PARAMCD": "_BILI",
      "PARAMN": 121.0,
      "PARCAT1": "CHEM",
      "AVAL": NaN,
      "BASE": null,
      "CHG": null,
      "A1LO": null,
      "A1HI": null,
      "R2A1LO": null,
      "R2A1HI": null,
      "BR2A1LO": null,
      "BR2A1HI": null,
      "ANL01FL": "",
      "ALBTRVAL": 21.240000000000002,
      "ANRIND": "",
      "BNRIND": "",
      "ABLFL": "",
      "AENTMTFL": "",
      "LBSEQ": 7.0,
      "LBNRIND": "NORMAL",
      "LBSTRESN": 10.26
    },
    {
      "STUDYID": "CDISCPILOT01",
      "SUBJID": "1015",
      "USUBJID": "01-701-1015",
      "TRTP": "Placebo",
      "TRTPN": 5.397605346934028e-79,
      "TRTA": "Placebo",
      "TRTAN": 5.397605346934028e-79,
      "TRTSDT": 19725.0,
      "TRTEDT": 19906.0,
      "AGE": 63.0,
      "AGEGR1": "<65",
      "AGEGR1N": 1.0,
      "RACE": "WHITE",
      "RACEN": 1.0,
      "SEX": "F",
      "COMP24FL": "Y",
      "DSRAEFL": "",
      "SAFFL": "Y",
      "AVISIT": "Baseline",
      "AVISITN": 5.397605346934028e-79,
      "ADY": -7.0,
      "ADT": 19718.0,
      "VISIT": "SCREENING 1",
      "VISITNUM": 1.0,
      "PARAM": "Alkaline Phosphatase (U/L) change from previous visit, relative to normal range",
      "PARAMCD": "_ALP",
      "PARAMN": 122.0,
      "PARCAT1": "CHEM",
      "AVAL": NaN,
      "BASE": null,
      "CHG": null,
      "A1LO": null,
      "A1HI": null,
      "R2A1LO": null,
      "R2A1HI": null,
      "BR2A1LO": null,
      "BR2A1HI": null,
      "ANL01FL": "",
      "ALBTRVAL": 138.5,
      "ANRIND": "",
      "BNRIND": "",
      "ABLFL": "",
      "AENTMTFL": "",
      "LBSEQ": 2.0,
      "LBNRIND": "LOW",
      "LBSTRESN": 34.0
    },
    {
      "STUDYID": "CDISCPILOT01",
      "SUBJID": "1015",
      "USUBJID": "01-701-1015",
      "TRTP": "Placebo",
      "TRTPN": 5.397605346934028e-79,
      "TRTA": "Placebo",
      "TRTAN": 5.397605346934028e-79,
      "TRTSDT": 19725.0,
      "TRTEDT": 19906.0,
      "AGE": 63.0,
      "AGEGR1": "<65",
      "AGEGR1N": 1.0,
      "RACE": "WHITE",
      "RACEN": 1.0,
      "SEX": "F",
      "COMP24FL": "Y",
      "DSRAEFL": "",
      "SAFFL": "Y",
      "AVISIT": "Baseline",
      "AVISITN": 5.397605346934028e-79,
      "ADY": -7.0,
      "ADT": 19718.0,
      "VISIT": "SCREENING 1",
      "VISITNUM": 1.0,
      "PARAM": "Gamma Glutamyl Transferase (U/L) change from previous visit, relative to normal range",
      "PARAMCD": "_GGT",
      "PARAMN": 123.0,
      "PARCAT1": "CHEM",
      "AVAL": NaN,
      "BASE": null,
      "CHG": null,
      "A1LO": null,
      "A1HI": null,
      "R2A1LO": null,
      "R2A1HI": null,
      "BR2A1LO": null,
      "BR2A1HI": null,
      "ANL01FL": "",
      "ALBTRVAL": 60.0,
      "ANRIND": "",
      "BNRIND": "",
      "ABLFL": "",
      "AENTMTFL": "",
      "LBSEQ": 16.0,
      "LBNRIND": "NORMAL",
      "LBSTRESN": 15.0
    },
    {
      "STUDYID": "CDISCPILOT01",
      "SUBJID": "1015",
      "USUBJID": "01-701-1015",
      "TRTP": "Placebo",
      "TRTPN": 5.397605346934028e-79,
      "TRTA": "Placebo",
      "TRTAN": 5.397605346934028e-79,
      "TRTSDT": 19725.0,
      "TRTEDT": 19906.0,
      "AGE": 63.0,
      "AGEGR1": "<65",
      "AGEGR1N": 1.0,
      "RACE": "WHITE",
      "RACEN": 1.0,
      "SEX": "F",
      "COMP24FL": "Y",
      "DSRAEFL": "",
      "SAFFL": "Y",
      "AVISIT": "Baseline",
      "AVISITN": 5.397605346934028e-79,
      "ADY": -7.0,
      "ADT": 19718.0,
      "VISIT": "SCREENING 1",
      "VISITNUM": 1.0,
      "PARAM": "Alanine Aminotransferase (U/L) change from previous visit, relative to normal range",
      "PARAMCD": "_ALT",
      "PARAMN": 124.0,
      "PARCAT1": "CHEM",
      "AVAL": NaN,
      "BASE": null,
      "CHG": null,
      "A1LO": null,
      "A1HI": null,
      "R2A1LO": null,
      "R2A1HI": null,
      "BR2A1LO": null,
      "BR2A1HI": null,
      "ANL01FL": "",
      "ALBTRVAL": 24.0,
      "ANRIND": "",
      "BNRIND": "",
      "ABLFL": "",
      "AENTMTFL": "",
      "LBSEQ": 3.0,
      "LBNRIND": "NORMAL",
      "LBSTRESN": 27.0
    },
    {
      "STUDYID": "CDISCPILOT01",
      "SUBJID": "1015",
      "USUBJID": "01-701-1015",
      "TRTP": "Placebo",
      "TRTPN": 5.397605346934028e-79,
      "TRTA": "Placebo",
      "TRTAN": 5.397605346934028e-79,
      "TRTSDT": 19725.0,
      "TRTEDT": 19906.0,
      "AGE": 63.0,
      "AGEGR1": "<65",
      "AGEGR1N": 1.0,
      "RACE": "WHITE",
      "RACEN": 1.0,
      "SEX": "F",
      "COMP24FL": "Y",
      "DSRAEFL": "",
      "SAFFL": "Y",
      "AVISIT": "Baseline",
      "AVISITN": 5.397605346934028e-79,
      "ADY": -7.0,
      "ADT": 19718.0,
      "VISIT": "SCREENING 1",
      "VISITNUM": 1.0,
      "PARAM": "Aspartate Aminotransferase (U/L) change from previous visit, relative to normal range",
      "PARAMCD": "_AST",
      "PARAMN": 125.0,
      "PARCAT1": "CHEM",
      "AVAL": NaN,
      "BASE": null,
      "CHG": null,
      "A1LO": null,
      "A1HI": null,
      "R2A1LO": null,
      "R2A1HI": null,
      "BR2A1LO": null,
      "BR2A1HI": null,
      "ANL01FL": "",
      "ALBTRVAL": 35.5,
      "ANRIND": "",
      "BNRIND": "",
      "ABLFL": "",
      "AENTMTFL": "",
      "LBSEQ": 5.0,
      "LBNRIND": "HIGH",
      "LBSTRESN": 40.0
    },
    {
      "STUDYID": "CDISCPILOT01",
      "SUBJID": "1015",
      "USUBJID": "01-701-1015",
      "TRTP": "Placebo",
      "TRTPN": 5.397605346934028e-79,
      "TRTA": "Placebo",
      "TRTAN": 5.397605346934028e-79,
      "TRTSDT": 19725.0,
      "TRTEDT": 19906.0,
      "AGE": 63.0,
      "AGEGR1": "<65",
      "AGEGR1N": 1.0,
      "RACE": "WHITE",
      "RACEN": 1.0,
      "SEX": "F",
      "COMP24FL": "Y",
      "DSRAEFL": "",
      "SAFFL": "Y",
      "AVISIT": "Baseline",
      "AVISITN": 5.397605346934028e-79,
      "ADY": -7.0,
      "ADT": 19718.0,
      "VISIT": "SCREENING 1",
      "VISITNUM": 1.0,
      "PARAM": "Blood Urea Nitrogen (mmol/L) change from previous visit, relative to normal range",
      "PARAMCD": "_BUN",
      "PARAMN": 126.0,
      "PARCAT1": "CHEM",
      "AVAL": NaN,
      "BASE": null,
      "CHG": null,
      "A1LO": null,
      "A1HI": null,
      "R2A1LO": null,
      "R2A1HI": null,
      "BR2A1LO": null,
      "BR2A1HI": null,
      "ANL01FL": "",
      "ALBTRVAL": 9.329999999999998,
      "ANRIND": "",
      "BNRIND": "",
      "ABLFL": "",
      "AENTMTFL": "",
      "LBSEQ": 8.0,
      "LBNRIND": "NORMAL",
      "LBSTRESN": 3.57
    },
    {
      "STUDYID": "CDISCPILOT01",
      "SUBJID": "1015",
      "USUBJID": "01-701-1015",
      "TRTP": "Placebo",
      "TRTPN": 5.397605346934028e-79,
      "TRTA": "Placebo",
      "TRTAN": 5.397605346934028e-79,
      "TRTSDT": 19725.0,
      "TRTEDT": 19906.0,
      "AGE": 63.0,
      "AGEGR1": "<65",
      "AGEGR1N": 1.0,
      "RACE": "WHITE",
      "RACEN": 1.0,
      "SEX": "F",
      "COMP24FL": "Y",
      "DSRAEFL": "",
      "SAFFL": "Y",
      "AVISIT": "Baseline",
      "AVISITN": 5.397605346934028e-79,
      "ADY": -7.0,
      "ADT": 19718.0,
      "VISIT": "SCREENING 1",
      "VISITNUM": 1.0,
      "PARAM": "Creatinine (umol/L) change from previous visit, relative to normal range",
      "PARAMCD": "_CREAT",
      "PARAMN": 127.0,
      "PARCAT1": "CHEM",
      "AVAL": NaN,
      "BASE": null,
      "CHG": null,
      "A1LO": null,
      "A1HI": null,
      "R2A1LO": null,
      "R2A1HI": null,
      "BR2A1LO": null,
      "BR2A1HI": null,
      "ANL01FL": "",
      "ALBTRVAL": 106.44000000000001,
      "ANRIND": "",
      "BNRIND": "",
      "ABLFL": "",
      "AENTMTFL": "",
      "LBSEQ": 14.0,
      "LBNRIND": "NORMAL",
      "LBSTRESN": 79.55999999999999
    },
    {
      "STUDYID": "CDISCPILOT01",
      "SUBJID": "1015",
      "USUBJID": "01-701-1015",
      "TRTP": "Placebo",
      "TRTPN": 5.397605346934028e-79,
      "TRTA": "Placebo",
      "TRTAN": 5.397605346934028e-79,
      "TRTSDT": 19725.0,
      "TRTEDT": 19906.0,
      "AGE": 63.0,
      "AGEGR1": "<65",
      "AGEGR1N": 1.0,
      "RACE": "WHITE",
      "RACEN": 1.0,
      "SEX": "F",
      "COMP24FL": "Y",
      "DSRAEFL": "",
      "SAFFL": "Y",
      "AVISIT": "Baseline",
      "AVISITN": 5.397605346934028e-79,
      "ADY": -7.0,
      "ADT": 19718.0,
      "VISIT": "SCREENING 1",
      "VISITNUM": 1.0,
      "PARAM": "Urate (umol/L) change from previous visit, relative to normal range",
      "PARAMCD": "_URATE",
      "PARAMN": 128.0,
      "PARCAT1": "CHEM",
      "AVAL": NaN,
      "BASE": null,
      "CHG": null,
      "A1LO": null,
      "A1HI": null,
      "R2A1LO": null,
      "R2A1HI": null,
      "BR2A1LO": null,
      "BR2A1HI": null,
      "ANL01FL": "",
      "ALBTRVAL": 401.34,
      "ANRIND": "",
      "BNRIND": "",
      "ABLFL": "",
      "AENTMTFL": "",
      "LBSEQ": 35.0,
      "LBNRIND": "NORMAL",
      "LBSTRESN": 267.66
    },
    {
      "STUDYID": "CDISCPILOT01",
      "SUBJID": "1015",
      "USUBJID": "01-701-1015",
      "TRTP": "Placebo",
      "TRTPN": 5.397605346934028e-79,
      "TRTA": "Placebo",
      "TRTAN": 5.397605346934028e-79,
      "TRTSDT": 19725.0,
      "TRTEDT": 19906.0,
      "AGE": 63.0,
      "AGEGR1": "<65",
      "AGEGR1N": 1.0,
      "RACE": "WHITE",
      "RACEN": 1.0,
      "SEX": "F",
      "COMP24FL": "Y",
      "DSRAEFL": "",
      "SAFFL": "Y",
      "AVISIT": "Baseline",
      "AVISITN": 5.397605346934028e-79,
      "ADY": -7.0,
      "ADT": 19718.0,
      "VISIT": "SCREENING 1",
      "VISITNUM": 1.0,
      "PARAM": "Phosphate (mmol/L) change from previous visit, relative to normal range",
      "PARAMCD": "_PHOS",
      "PARAMN": 129.0,
      "PARCAT1": "CHEM",
      "AVAL": NaN,
      "BASE": null,
      "CHG": null,
      "A1LO": null,
      "A1HI": null,
      "R2A1LO": null,
      "R2A1HI": null,
      "BR2A1LO": null,
      "BR2A1HI": null,
      "ANL01FL": "",
      "ALBTRVAL": 1.2479799999999996,
      "ANRIND": "",
      "BNRIND": "",
      "ABLFL": "",
      "AENTMTFL": "",
      "LBSEQ": 29.0,
      "LBNRIND": "NORMAL",
      "LBSTRESN": 1.22702
    },
    {
      "STUDYID": "CDISCPILOT01",
      "SUBJID": "1015",
      "USUBJID": "01-701-1015",
      "TRTP": "Placebo",
      "TRTPN": 5.397605346934028e-79,
      "TRTA": "Placebo",
      "TRTAN": 5.397605346934028e-79,
      "TRTSDT": 19725.0,
      "TRTEDT": 19906.0,
      "AGE": 63.0,
      "AGEGR1": "<65",
      "AGEGR1N": 1.0,
      "RACE": "WHITE",
      "RACEN": 1.0,
      "SEX": "F",
      "COMP24FL": "Y",
      "DSRAEFL": "",
      "SAFFL": "Y",
      "AVISIT": "Baseline",
      "AVISITN": 5.397605346934028e-79,
      "ADY": -7.0,
      "ADT": 19718.0,
      "VISIT": "SCREENING 1",
      "VISITNUM": 1.0,
      "PARAM": "Calcium (mmol/L) change from previous visit, relative to normal range",
      "PARAMCD": "_CA",
      "PARAMN": 130.0,
      "PARCAT1": "CHEM",
      "AVAL": NaN,
      "BASE": null,
      "CHG": null,
      "A1LO": null,
      "A1HI": null,
      "R2A1LO": null,
      "R2A1HI": null,
      "BR2A1LO": null,
      "BR2A1HI": null,
      "ANL01FL": "",
      "ALBTRVAL": 1.6593999999999998,
      "ANRIND": "",
      "BNRIND": "",
      "ABLFL": "",
      "AENTMTFL": "",
      "LBSEQ": 9.0,
      "LBNRIND": "NORMAL",
      "LBSTRESN": 2.1955999999999998
    },
    {
      "STUDYID": "CDISCPILOT01",
      "SUBJID": "1015",
      "USUBJID": "01-701-1015",
      "TRTP": "Placebo",
      "TRTPN": 5.397605346934028e-79,
      "TRTA": "Placebo",
      "TRTAN": 5.397605346934028e-79,
      "TRTSDT": 19725.0,
      "TRTEDT": 19906.0,
      "AGE": 63.0,
      "AGEGR1": "<65",
      "AGEGR1N": 1.0,
      "RACE": "WHITE",
      "RACEN": 1.0,
      "SEX": "F",
      "COMP24FL": "Y",
      "DSRAEFL": "",
      "SAFFL": "Y",
      "AVISIT": "Baseline",
      "AVISITN": 5.397605346934028e-79,
      "ADY": -7.0,
      "ADT": 19718.0,
      "VISIT": "SCREENING 1",
      "VISITNUM": 1.0,
      "PARAM": "Glucose (mmol/L) change from previous visit, relative to normal range",
      "PARAMCD": "_GLUC",
      "PARAMN": 131.0,
      "PARCAT1": "CHEM",
      "AVAL": NaN,
      "BASE": null,
      "CHG": null,
      "A1LO": null,
      "A1HI": null,
      "R2A1LO": null,
      "R2A1HI": null,
      "BR2A1LO": null,
      "BR2A1HI": null,
      "ANL01FL": "",
      "ALBTRVAL": 16.131649999999997,
      "ANRIND": "",
      "BNRIND": "",
      "ABLFL": "",
      "AENTMTFL": "",
      "LBSEQ": 17.0,
      "LBNRIND": "NORMAL",
      "LBSTRESN": 4.71835
    },
    {
      "STUDYID": "CDISCPILOT01",
      "SUBJID": "1015",
      "USUBJID": "01-701-1015",
      "TRTP": "Placebo",
      "TRTPN": 5.397605346934028e-79,
      "TRTA": "Placebo",
      "TRTAN": 5.397605346934028e-79,
      "TRTSDT": 19725.0,
      "TRTEDT": 19906.0,
      "AGE": 63.0,
      "AGEGR1": "<65",
      "AGEGR1N": 1.0,
      "RACE": "WHITE",
      "RACEN": 1.0,
      "SEX": "F",
      "COMP24FL": "Y",
      "DSRAEFL": "",
      "SAFFL": "Y",
      "AVISIT": "Baseline",
      "AVISITN": 5.397605346934028e-79,
      "ADY": -7.0,
      "ADT": 19718.0,
      "VISIT": "SCREENING 1",
      "VISITNUM": 1.0,
      "PARAM": "Protein (g/L) change from previous visit, relative to normal range",
      "PARAMCD": "_PROT",
      "PARAMN": 132.0,
      "PARCAT1": "CHEM",
      "AVAL": NaN,
      "BASE": null,
      "CHG": null,
      "A1LO": null,
      "A1HI": null,
      "R2A1LO": null,
      "R2A1HI": null,
      "BR2A1LO": null,
      "BR2A1HI": null,
      "ANL01FL": "",
      "ALBTRVAL": 59.0,
      "ANRIND": "",
      "BNRIND": "",
      "ABLFL": "",
      "AENTMTFL": "",
      "LBSEQ": 31.0,
      "LBNRIND": "NORMAL",
      "LBSTRESN": 61.0
    },
    {
      "STUDYID": "CDISCPILOT01",
      "SUBJID": "1015",
      "USUBJID": "01-701-1015",
      "TRTP": "Placebo",
      "TRTPN": 5.397605346934028e-79,
      "TRTA": "Placebo",
      "TRTAN": 5.397605346934028e-79,
      "TRTSDT": 19725.0,
      "TRTEDT": 19906.0,
      "AGE": 63.0,
      "AGEGR1": "<65",
      "AGEGR1N": 1.0,
      "RACE": "WHITE",
      "RACEN": 1.0,
      "SEX": "F",
      "COMP24FL": "Y",
      "DSRAEFL": "",
      "SAFFL": "Y",
      "AVISIT": "Baseline",
      "AVISITN": 5.397605346934028e-79,
      "ADY": -7.0,
      "ADT": 19718.0,
      "VISIT": "SCREENING 1",
      "VISITNUM": 1.0,
      "PARAM": "Albumin (g/L) change from previous visit, relative to normal range",
      "PARAMCD": "_ALB",
      "PARAMN": 133.0,
      "PARCAT1": "CHEM",
      "AVAL": NaN,
      "BASE": null,
      "CHG": null,
      "A1LO": null,
      "A1HI": null,
      "R2A1LO": null,
      "R2A1HI": null,
      "BR2A1LO": null,
      "BR2A1HI": null,
      "ANL01FL": "",
      "ALBTRVAL": 35.5,
      "ANRIND": "",
      "BNRIND": "",
      "ABLFL": "",
      "AENTMTFL": "",
      "LBSEQ": 1.0,
      "LBNRIND": "NORMAL",
      "LBSTRESN": 38.0
    },
    {
      "STUDYID": "CDISCPILOT01",
      "SUBJID": "1015",
      "USUBJID": "01-701-1015",
      "TRTP": "Placebo",
      "TRTPN": 5.397605346934028e-79,
      "TRTA": "Placebo",
      "TRTAN": 5.397605346934028e-79,
      "TRTSDT": 19725.0,
      "TRTEDT": 19906.0,
      "AGE": 63.0,
      "AGEGR1": "<65",
      "AGEGR1N": 1.0,
      "RACE": "WHITE",
      "RACEN": 1.0,
      "SEX": "F",
      "COMP24FL": "Y",
      "DSRAEFL": "",
      "SAFFL": "Y",
      "AVISIT": "Baseline",
      "AVISITN": 5.397605346934028e-79,
      "ADY": -7.0,
      "ADT": 19718.0,
      "VISIT": "SCREENING 1",
      "VISITNUM": 1.0,
      "PARAM": "Cholesterol (mmol/L) change from previous visit, relative to normal range",
      "PARAMCD": "_CHOL",
      "PARAMN": 134.0,
      "PARCAT1": "CHEM",
      "AVAL": NaN,
      "BASE": null,
      "CHG": null,
      "A1LO": null,
      "A1HI": null,
      "R2A1LO": null,
      "R2A1HI": null,
      "BR2A1LO": null,
      "BR2A1HI": null,
      "ANL01FL": "",
      "ALBTRVAL": 5.692200000000001,
      "ANRIND": "",
      "BNRIND": "",
      "ABLFL": "",
      "AENTMTFL": "",
      "LBSEQ": 10.0,
      "LBNRIND": "NORMAL",
      "LBSTRESN": 5.9478
    },
    {
      "STUDYID": "CDISCPILOT01",
      "SUBJID": "1015",
      "USUBJID": "01-701-1015",
      "TRTP": "Placebo",
      "TRTPN": 5.397605346934028e-79,
      "TRTA": "Placebo",
      "TRTAN": 5.397605346934028e-79,
      "TRTSDT": 19725.0,
      "TRTEDT": 19906.0,
      "AGE": 63.0,
      "AGEGR1": "<65",
      "AGEGR1N": 1.0,
      "RACE": "WHITE",
      "RACEN": 1.0,
      "SEX": "F",
      "COMP24FL": "Y",
      "DSRAEFL": "",
      "SAFFL": "Y",
      "AVISIT": "Baseline",
      "AVISITN": 5.397605346934028e-79,
      "ADY": -7.0,
      "ADT": 19718.0,
      "VISIT": "SCREENING 1",
      "VISITNUM": 1.0,
      "PARAM": "Creatine Kinase (U/L) change from previous visit, relative to normal range",
      "PARAMCD": "_CK",
      "PARAMN": 135.0,
      "PARCAT1": "CHEM",
      "AVAL": NaN,
      "BASE": null,
      "CHG": null,
      "A1LO": null,
      "A1HI": null,
      "R2A1LO": null,
      "R2A1HI": null,
      "BR2A1LO": null,
      "BR2A1HI": null,
      "ANL01FL": "",
      "ALBTRVAL": 183.5,
      "ANRIND": "",
      "BNRIND": "",
      "ABLFL": "",
      "AENTMTFL": "",
      "LBSEQ": 11.0,
      "LBNRIND": "NORMAL",
      "LBSTRESN": 70.0
    },
    {
      "STUDYID": "CDISCPILOT01",
      "SUBJID": "1015",
      "USUBJID": "01-701-1015",
      "TRTP": "Placebo",
      "TRTPN": 5.397605346934028e-79,
      "TRTA": "Placebo",
      "TRTAN": 5.397605346934028e-79,
      "TRTSDT": 19725.0,
      "TRTEDT": 19906.0,
      "AGE": 63.0,
      "AGEGR1": "<65",
      "AGEGR1N": 1.0,
      "RACE": "WHITE",
      "RACEN": 1.0,
      "SEX": "F",
      "COMP24FL": "Y",
      "DSRAEFL": "",
      "SAFFL": "Y",
      "AVISIT": "Week 2",
      "AVISITN": 2.0,
      "ADY": 15.0,
      "ADT": 19739.0,
      "VISIT": "WEEK 2",
      "VISITNUM": 4.0,
      "PARAM": "Sodium (mmol/L) change from previous visit, relative to normal range",
      "PARAMCD": "_SODIUM",
      "PARAMN": 118.0,
      "PARCAT1": "CHEM",
      "AVAL": 0.4,
      "BASE": null,
      "CHG": null,
      "A1LO": null,
      "A1HI": null,
      "R2A1LO": null,
      "R2A1HI": null,
      "BR2A1LO": null,
      "BR2A1HI": null,
      "ANL01FL": "Y",
      "ALBTRVAL": 75.5,
      "ANRIND": "N",
      "BNRIND": "",
      "ABLFL": "",
      "AENTMTFL": "",
      "LBSEQ": 64.0,
      "LBNRIND": "NORMAL",
      "LBSTRESN": 142.0
    },
    {
      "STUDYID": "CDISCPILOT01",
      "SUBJID": "1015",
      "USUBJID": "01-701-1015",
      "TRTP": "Placebo",
      "TRTPN": 5.397605346934028e-79,
      "TRTA": "Placebo",
      "TRTAN": 5.397605346934028e-79,
      "TRTSDT": 19725.0,
      "TRTEDT": 19906.0,
      "AGE": 63.0,
      "AGEGR1": "<65",
      "AGEGR1N": 1.0,
      "RACE": "WHITE",
      "RACEN": 1.0,
      "SEX": "F",
      "COMP24FL": "Y",
      "DSRAEFL": "",
      "SAFFL": "Y",
      "AVISIT": "Week 2",
      "AVISITN": 2.0,
      "ADY": 15.0,
      "ADT": 19739.0,
      "VISIT": "WEEK 2",
      "VISITNUM": 4.0,
      "PARAM": "Potassium (mmol/L) change from previous visit, relative to normal range",
      "PARAMCD": "_K",
      "PARAMN": 119.0,
      "PARCAT1": "CHEM",
      "AVAL": -0.1,
      "BASE": null,
      "CHG": null,
      "A1LO": null,
      "A1HI": null,
      "R2A1LO": null,
      "R2A1HI": null,
      "BR2A1LO": null,
      "BR2A1HI": null,
      "ANL01FL": "",
      "ALBTRVAL": 3.7,
      "ANRIND": "N",
      "BNRIND": "",
      "ABLFL": "",
      "AENTMTFL": "",
      "LBSEQ": 57.0,
      "LBNRIND": "NORMAL",
      "LBSTRESN": 4.3999999999999995
    },
    {
      "STUDYID": "CDISCPILOT01",
      "SUBJID": "1015",
      "USUBJID": "01-701-1015",
      "TRTP": "Placebo",
      "TRTPN": 5.397605346934028e-79,
      "TRTA": "Placebo",
      "TRTAN": 5.397605346934028e-79,
      "TRTSDT": 19725.0,
      "TRTEDT": 19906.0,
      "AGE": 63.0,
      "AGEGR1": "<65",
      "AGEGR1N": 1.0,
      "RACE": "WHITE",
      "RACEN": 1.0,
      "SEX": "F",
      "COMP24FL": "Y",
      "DSRAEFL": "",
      "SAFFL": "Y",
      "AVISIT": "Week 2",
      "AVISITN": 2.0,
      "ADY": 15.0,
      "ADT": 19739.0,
      "VISIT": "WEEK 2",
      "VISITNUM": 4.0,
      "PARAM": "Chloride (mmol/L) change from previous visit, relative to normal range",
      "PARAMCD": "_CL",
      "PARAMN": 120.0,
      "PARCAT1": "CHEM",
      "AVAL": -0.3,
      "BASE": null,
      "CHG": null,
      "A1LO": null,
      "A1HI": null,
      "R2A1LO": null,
      "R2A1HI": null,
      "BR2A1LO": null,
      "BR2A1HI": null,
      "ANL01FL": "",
      "ALBTRVAL": 65.0,
      "ANRIND": "N",
      "BNRIND": "",
      "ABLFL": "",
      "AENTMTFL": "",
      "LBSEQ": 49.0,
      "LBNRIND": "NORMAL",
      "LBSTRESN": 103.0
    },
    {
      "STUDYID": "CDISCPILOT01",
      "SUBJID": "1015",
      "USUBJID": "01-701-1015",
      "TRTP": "Placebo",
      "TRTPN": 5.397605346934028e-79,
      "TRTA": "Placebo",
      "TRTAN": 5.397605346934028e-79,
      "TRTSDT": 19725.0,
      "TRTEDT": 19906.0,
      "AGE": 63.0,
      "AGEGR1": "<65",
      "AGEGR1N": 1.0,
      "RACE": "WHITE",
      "RACEN": 1.0,
      "SEX": "F",
      "COMP24FL": "Y",
      "DSRAEFL": "",
      "SAFFL": "Y",
      "AVISIT": "Week 2",
      "AVISITN": 2.0,
      "ADY": 15.0,
      "ADT": 19739.0,
      "VISIT": "WEEK 2",
      "VISITNUM": 4.0,
      "PARAM": "Bilirubin (umol/L) change from previous visit, relative to normal range",
      "PARAMCD": "_BILI",
      "PARAMN": 121.0,
      "PARCAT1": "CHEM",
      "AVAL": -0.2,
      "BASE": null,
      "CHG": null,
      "A1LO": null,
      "A1HI": null,
      "R2A1LO": null,
      "R2A1HI": null,
      "BR2A1LO": null,
      "BR2A1HI": null,
      "ANL01FL": "",
      "ALBTRVAL": 22.950000000000003,
      "ANRIND": "N",
      "BNRIND": "",
      "ABLFL": "",
      "AENTMTFL": "",
      "LBSEQ": 44.0,
      "LBNRIND": "NORMAL",
      "LBSTRESN": 8.549999999999999
    },
    {
      "STUDYID": "CDISCPILOT01",
      "SUBJID": "1015",
      "USUBJID": "01-701-1015",
      "TRTP": "Placebo",
      "TRTPN": 5.397605346934028e-79,
      "TRTA": "Placebo",
      "TRTAN": 5.397605346934028e-79,
      "TRTSDT": 19725.0,
      "TRTEDT": 19906.0,
      "AGE": 63.0,
      "AGEGR1": "<65",
      "AGEGR1N": 1.0,
      "RACE": "WHITE",
      "RACEN": 1.0,
      "SEX": "F",
      "COMP24FL": "Y",
      "DSRAEFL": "",
      "SAFFL": "Y",
      "AVISIT": "Week 2",
      "AVISITN": 2.0,
      "ADY": 15.0,
      "ADT": 19739.0,
      "VISIT": "WEEK 2",
      "VISITNUM": 4.0,
      "PARAM": "Alkaline Phosphatase (U/L) change from previous visit, relative to normal range",
      "PARAMCD": "_ALP",
      "PARAMN": 122.0,
      "PARCAT1": "CHEM",
      "AVAL": 0.4,
      "BASE": null,
      "CHG": null,
      "A1LO": null,
      "A1HI": null,
      "R2A1LO": null,
      "R2A1HI": null,
      "BR2A1LO": null,
      "BR2A1HI": null,
      "ANL01FL": "Y",
      "ALBTRVAL": 122.5,
      "ANRIND": "N",
      "BNRIND": "",
      "ABLFL": "",
      "AENTMTFL": "",
      "LBSEQ": 40.0,
      "LBNRIND": "NORMAL",
      "LBSTRESN": 50.0
    },
    {
      "STUDYID": "CDISCPILOT01",
      "SUBJID": "1015",
      "USUBJID": "01-701-1015",
      "TRTP": "Placebo",
      "TRTPN": 5.397605346934028e-79,
      "TRTA": "Placebo",
      "TRTAN": 5.397605346934028e-79,
      "TRTSDT": 19725.0,
      "TRTEDT": 19906.0,
      "AGE": 63.0,
      "AGEGR1": "<65",
      "AGEGR1N": 1.0,
      "RACE": "WHITE",
      "RACEN": 1.0,
      "SEX": "F",
      "COMP24FL": "Y",
      "DSRAEFL": "",
      "SAFFL": "Y",
      "AVISIT": "Week 2",
      "AVISITN": 2.0,
      "ADY": 15.0,
      "ADT": 19739.0,
      "VISIT": "WEEK 2",
      "VISITNUM": 4.0,
      "PARAM": "Gamma Glutamyl Transferase (U/L) change from previous visit, relative to normal range",
      "PARAMCD": "_GGT",
      "PARAMN": 123.0,
      "PARCAT1": "CHEM",
      "AVAL": 0.2,
      "BASE": null,
      "CHG": null,
      "A1LO": null,
      "A1HI": null,
      "R2A1LO": null,
      "R2A1HI": null,
      "BR2A1LO": null,
      "BR2A1HI": null,
      "ANL01FL": "",
      "ALBTRVAL": 56.0,
      "ANRIND": "N",
      "BNRIND": "",
      "ABLFL": "",
      "AENTMTFL": "",
      "LBSEQ": 53.0,
      "LBNRIND": "NORMAL",
      "LBSTRESN": 19.0
    },
    {
      "STUDYID": "CDISCPILOT01",
      "SUBJID": "1015",
      "USUBJID": "01-701-1015",
      "TRTP": "Placebo",
      "TRTPN": 5.397605346934028e-79,
      "TRTA": "Placebo",
      "TRTAN": 5.397605346934028e-79,
      "TRTSDT": 19725.0,
      "TRTEDT": 19906.0,
      "AGE": 63.0,
      "AGEGR1": "<65",
      "AGEGR1N": 1.0,
      "RACE": "WHITE",
      "RACEN": 1.0,
      "SEX": "F",
      "COMP24FL": "Y",
      "DSRAEFL": "",
      "SAFFL": "Y",
      "AVISIT": "Week 2",
      "AVISITN": 2.0,
      "ADY": 15.0,
      "ADT": 19739.0,
      "VISIT": "WEEK 2",
      "VISITNUM": 4.0,
      "PARAM": "Alanine Aminotransferase (U/L) change from previous visit, relative to normal range",
      "PARAMCD": "_ALT",
      "PARAMN": 124.0,
      "PARCAT1": "CHEM",
      "AVAL": 1.0,
      "BASE": null,
      "CHG": null,
      "A1LO": null,
      "A1HI": null,
      "R2A1LO": null,
      "R2A1HI": null,
      "BR2A1LO": null,
      "BR2A1HI": null,
      "ANL01FL": "",
      "ALBTRVAL": 38.0,
      "ANRIND": "N",
      "BNRIND": "",
      "ABLFL": "",
      "AENTMTFL": "",
      "LBSEQ": 41.0,
      "LBNRIND": "HIGH",
      "LBSTRESN": 41.0
    },
    {
      "STUDYID": "CDISCPILOT01",
      "SUBJID": "1015",
      "USUBJID": "01-701-1015",
      "TRTP": "Placebo",
      "TRTPN": 5.397605346934028e-79,
      "TRTA": "Placebo",
      "TRTAN": 5.397605346934028e-79,
      "TRTSDT": 19725.0,
      "TRTEDT": 19906.0,
      "AGE": 63.0,
      "AGEGR1": "<65",
      "AGEGR1N": 1.0,
      "RACE": "WHITE",
      "RACEN": 1.0,
      "SEX": "F",
      "COMP24FL": "Y",
      "DSRAEFL": "",
      "SAFFL": "Y",
      "AVISIT": "Week 2",
      "AVISITN": 2.0,
      "ADY": 15.0,
      "ADT": 19739.0,
      "VISIT": "WEEK 2",
      "VISITNUM": 4.0,
      "PARAM": "Aspartate Aminotransferase (U/L) change from previous visit, relative to normal range",
      "PARAMCD": "_AST",
      "PARAMN": 125.0,
      "PARCAT1": "CHEM",
      "AVAL": -0.6,
      "BASE": null,
      "CHG": null,
      "A1LO": null,
      "A1HI": null,
      "R2A1LO": null,
      "R2A1HI": null,
      "BR2A1LO": null,
      "BR2A1HI": null,
      "ANL01FL": "",
      "ALBTRVAL": 28.5,
      "ANRIND": "N",
      "BNRIND": "",
      "ABLFL": "",
      "AENTMTFL": "",
      "LBSEQ": 42.0,
      "LBNRIND": "NORMAL",
      "LBSTRESN": 33.0
    },
    {
      "STUDYID": "CDISCPILOT01",
      "SUBJID": "1015",
      "USUBJID": "01-701-1015",
      "TRTP": "Placebo",
      "TRTPN": 5.397605346934028e-79,
      "TRTA": "Placebo",
      "TRTAN": 5.397605346934028e-79,
      "TRTSDT": 19725.0,
      "TRTEDT": 19906.0,
      "AGE": 63.0,
      "AGEGR1": "<65",
      "AGEGR1N": 1.0,
      "RACE": "WHITE",
      "RACEN": 1.0,
      "SEX": "F",
      "COMP24FL": "Y",
      "DSRAEFL": "",
      "SAFFL": "Y",
      "AVISIT": "Week 2",
      "AVISITN": 2.0,
      "ADY": 15.0,
      "ADT": 19739.0,
      "VISIT": "WEEK 2",
      "VISITNUM": 4.0,
      "PARAM": "Blood Urea Nitrogen (mmol/L) change from previous visit, relative to normal range",
      "PARAMCD": "_BUN",
      "PARAMN": 126.0,
      "PARCAT1": "CHEM",
      "AVAL": 5.397605346934028e-79,
      "BASE": null,
      "CHG": null,
      "A1LO": null,
      "A1HI": null,
      "R2A1LO": null,
      "R2A1HI": null,
      "BR2A1LO": null,
      "BR2A1HI": null,
      "ANL01FL": "",
      "ALBTRVAL": 9.329999999999998,
      "ANRIND": "N",
      "BNRIND": "",
      "ABLFL": "",
      "AENTMTFL": "",
      "LBSEQ": 45.0,
      "LBNRIND": "NORMAL",
      "LBSTRESN": 3.57
    },
    {
      "STUDYID": "CDISCPILOT01",
      "SUBJID": "1015",
      "USUBJID": "01-701-1015",
      "TRTP": "Placebo",
      "TRTPN": 5.397605346934028e-79,
      "TRTA": "Placebo",
      "TRTAN": 5.397605346934028e-79,
      "TRTSDT": 19725.0,
      "TRTEDT": 19906.0,
      "AGE": 63.0,
      "AGEGR1": "<65",
      "AGEGR1N": 1.0,
      "RACE": "WHITE",
      "RACEN": 1.0,
      "SEX": "F",
      "COMP24FL": "Y",
      "DSRAEFL": "",
      "SAFFL": "Y",
      "AVISIT": "Week 2",
      "AVISITN": 2.0,
      "ADY": 15.0,
      "ADT": 19739.0,
      "VISIT": "WEEK 2",
      "VISITNUM": 4.0,
      "PARAM": "Creatinine (umol/L) change from previous visit, relative to normal range",
      "PARAMCD": "_CREAT",
      "PARAMN": 127.0,
      "PARCAT1": "CHEM",
      "AVAL": 0.3,
      "BASE": null,
      "CHG": null,
      "A1LO": null,
      "A1HI": null,
      "R2A1LO": null,
      "R2A1HI": null,
      "BR2A1LO": null,
      "BR2A1HI": null,
      "ANL01FL": "",
      "ALBTRVAL": 97.60000000000001,
      "ANRIND": "N",
      "BNRIND": "",
      "ABLFL": "",
      "AENTMTFL": "",
      "LBSEQ": 51.0,
      "LBNRIND": "NORMAL",
      "LBSTRESN": 88.39999999999999
    },
    {
      "STUDYID": "CDISCPILOT01",
      "SUBJID": "1015",
      "USUBJID": "01-701-1015",
      "TRTP": "Placebo",
      "TRTPN": 5.397605346934028e-79,
      "TRTA": "Placebo",
      "TRTAN": 5.397605346934028e-79,
      "TRTSDT": 19725.0,
      "TRTEDT": 19906.0,
      "AGE": 63.0,
      "AGEGR1": "<65",
      "AGEGR1N": 1.0,
      "RACE": "WHITE",
      "RACEN": 1.0,
      "SEX": "F",
      "COMP24FL": "Y",
      "DSRAEFL": "",
      "SAFFL": "Y",
      "AVISIT": "Week 2",
      "AVISITN": 2.0,
      "ADY": 15.0,
      "ADT": 19739.0,
      "VISIT": "WEEK 2",
      "VISITNUM": 4.0,
      "PARAM": "Urate (umol/L) change from previous visit, relative to normal range",
      "PARAMCD": "_URATE",
      "PARAMN": 128.0,
      "PARCAT1": "CHEM",
      "AVAL": 0.2,
      "BASE": null,
      "CHG": null,
      "A1LO": null,
      "A1HI": null,
      "R2A1LO": null,
      "R2A1HI": null,
      "BR2A1LO": null,
      "BR2A1HI": null,
      "ANL01FL": "Y",
      "ALBTRVAL": 377.548,
      "ANRIND": "N",
      "BNRIND": "",
      "ABLFL": "",
      "AENTMTFL": "",
      "LBSEQ": 71.0,
      "LBNRIND": "NORMAL",
      "LBSTRESN": 291.452
    },
    {
      "STUDYID": "CDISCPILOT01",
      "SUBJID": "1015",
      "USUBJID": "01-701-1015",
      "TRTP": "Placebo",
      "TRTPN": 5.397605346934028e-79,
      "TRTA": "Placebo",
      "TRTAN": 5.397605346934028e-79,
      "TRTSDT": 19725.0,
      "TRTEDT": 19906.0,
      "AGE": 63.0,
      "AGEGR1": "<65",
      "AGEGR1N": 1.0,
      "RACE": "WHITE",
      "RACEN": 1.0,
      "SEX": "F",
      "COMP24FL": "Y",
      "DSRAEFL": "",
      "SAFFL": "Y",
      "AVISIT": "Week 2",
      "AVISITN": 2.0,
      "ADY": 15.0,
      "ADT": 19739.0,
      "VISIT": "WEEK 2",
      "VISITNUM": 4.0,
      "PARAM": "Phosphate (mmol/L) change from previous visit, relative to normal range",
      "PARAMCD": "_PHOS",
      "PARAMN": 129.0,
      "PARCAT1": "CHEM",
      "AVAL": 0.1,
      "BASE": null,
      "CHG": null,
      "A1LO": null,
      "A1HI": null,
      "R2A1LO": null,
      "R2A1HI": null,
      "BR2A1LO": null,
      "BR2A1HI": null,
      "ANL01FL": "",
      "ALBTRVAL": 1.2156899999999997,
      "ANRIND": "N",
      "BNRIND": "",
      "ABLFL": "",
      "AENTMTFL": "",
      "LBSEQ": 66.0,
      "LBNRIND": "NORMAL",
      "LBSTRESN": 1.25931
    },
    {
      "STUDYID": "CDISCPILOT01",
      "SUBJID": "1015",
      "USUBJID": "01-701-1015",
      "TRTP": "Placebo",
      "TRTPN": 5.397605346934028e-79,
      "TRTA": "Placebo",
      "TRTAN": 5.397605346934028e-79,
      "TRTSDT": 19725.0,
      "TRTEDT": 19906.0,
      "AGE": 63.0,
      "AGEGR1": "<65",
      "AGEGR1N": 1.0,
      "RACE": "WHITE",
      "RACEN": 1.0,
      "SEX": "F",
      "COMP24FL": "Y",
      "DSRAEFL": "",
      "SAFFL": "Y",
      "AVISIT": "Week 2",
      "AVISITN": 2.0,
      "ADY": 15.0,
      "ADT": 19739.0,
      "VISIT": "WEEK 2",
      "VISITNUM": 4.0,
      "PARAM": "Calcium (mmol/L) change from previous visit, relative to normal range",
      "PARAMCD": "_CA",
      "PARAMN": 130.0,
      "PARCAT1": "CHEM",
      "AVAL": 0.6,
      "BASE": null,
      "CHG": null,
      "A1LO": null,
      "A1HI": null,
      "R2A1LO": null,
      "R2A1HI": null,
      "BR2A1LO": null,
      "BR2A1HI": null,
      "ANL01FL": "Y",
      "ALBTRVAL": 1.5096999999999996,
      "ANRIND": "N",
      "BNRIND": "",
      "ABLFL": "",
      "AENTMTFL": "",
      "LBSEQ": 46.0,
      "LBNRIND": "NORMAL",
      "LBSTRESN": 2.3453
    },
    {
      "STUDYID": "CDISCPILOT01",
      "SUBJID": "1015",
      "USUBJID": "01-701-1015",
      "TRTP": "Placebo",
      "TRTPN": 5.397605346934028e-79,
      "TRTA": "Placebo",
      "TRTAN": 5.397605346934028e-79,
      "TRTSDT": 19725.0,
      "TRTEDT": 19906.0,
      "AGE": 63.0,
      "AGEGR1": "<65",
      "AGEGR1N": 1.0,
      "RACE": "WHITE",
      "RACEN": 1.0,
      "SEX": "F",
      "COMP24FL": "Y",
      "DSRAEFL": "",
      "SAFFL": "Y",
      "AVISIT": "Week 2",
      "AVISITN": 2.0,
      "ADY": 15.0,
      "ADT": 19739.0,
      "VISIT": "WEEK 2",
      "VISITNUM": 4.0,
      "PARAM": "Glucose (mmol/L) change from previous visit, relative to normal range",
      "PARAMCD": "_GLUC",
      "PARAMN": 131.0,
      "PARCAT1": "CHEM",
      "AVAL": 5.397605346934028e-79,
      "BASE": null,
      "CHG": null,
      "A1LO": null,
      "A1HI": null,
      "R2A1LO": null,
      "R2A1HI": null,
      "BR2A1LO": null,
      "BR2A1HI": null,
      "ANL01FL": "",
      "ALBTRVAL": 16.18716,
      "ANRIND": "N",
      "BNRIND": "",
      "ABLFL": "",
      "AENTMTFL": "",
      "LBSEQ": 54.0,
      "LBNRIND": "NORMAL",
      "LBSTRESN": 4.66284
    },
    {
      "STUDYID": "CDISCPILOT01",
      "SUBJID": "1015",
      "USUBJID": "01-701-1015",
      "TRTP": "Placebo",
      "TRTPN": 5.397605346934028e-79,
      "TRTA": "Placebo",
      "TRTAN": 5.397605346934028e-79,
      "TRTSDT": 19725.0,
      "TRTEDT": 19906.0,
      "AGE": 63.0,
      "AGEGR1": "<65",
      "AGEGR1N": 1.0,
      "RACE": "WHITE",
      "RACEN": 1.0,
      "SEX": "F",
      "COMP24FL": "Y",
      "DSRAEFL": "",
      "SAFFL": "Y",
      "AVISIT": "Week 2",
      "AVISITN": 2.0,
      "ADY": 15.0,
      "ADT": 19739.0,
      "VISIT": "WEEK 2",
      "VISITNUM": 4.0,
      "PARAM": "Protein (g/L) change from previous visit, relative to normal range",
      "PARAMCD": "_PROT",
      "PARAMN": 132.0,
      "PARCAT1": "CHEM",
      "AVAL": 1.6,
      "BASE": null,
      "CHG": null,
      "A1LO": null,
      "A1HI": null,
      "R2A1LO": null,
      "R2A1HI": null,
      "BR2A1LO": null,
      "BR2A1HI": null,
      "ANL01FL": "Y",
      "ALBTRVAL": 47.0,
      "ANRIND": "H",
      "BNRIND": "",
      "ABLFL": "",
      "AENTMTFL": "",
      "LBSEQ": 68.0,
      "LBNRIND": "NORMAL",
      "LBSTRESN": 77.0
    },
    {
      "STUDYID": "CDISCPILOT01",
      "SUBJID": "1015",
      "USUBJID": "01-701-1015",
      "TRTP": "Placebo",
      "TRTPN": 5.397605346934028e-79,
      "TRTA": "Placebo",
      "TRTAN": 5.397605346934028e-79,
      "TRTSDT": 19725.0,
      "TRTEDT": 19906.0,
      "AGE": 63.0,
      "AGEGR1": "<65",
      "AGEGR1N": 1.0,
      "RACE": "WHITE",
      "RACEN": 1.0,
      "SEX": "F",
      "COMP24FL": "Y",
      "DSRAEFL": "",
      "SAFFL": "Y",
      "AVISIT": "Week 2",
      "AVISITN": 2.0,
      "ADY": 15.0,
      "ADT": 19739.0,
      "VISIT": "WEEK 2",
      "VISITNUM": 4.0,
      "PARAM": "Albumin (g/L) change from previous visit, relative to normal range",
      "PARAMCD": "_ALB",
      "PARAMN": 133.0,
      "PARCAT1": "CHEM",
      "AVAL": 0.1,
      "BASE": null,
      "CHG": null,
      "A1LO": null,
      "A1HI": null,
      "R2A1LO": null,
      "R2A1HI": null,
      "BR2A1LO": null,
      "BR2A1HI": null,
      "ANL01FL": "Y",
      "ALBTRVAL": 34.5,
      "ANRIND": "N",
      "BNRIND": "",
      "ABLFL": "",
      "AENTMTFL": "",
      "LBSEQ": 39.0,
      "LBNRIND": "NORMAL",
      "LBSTRESN": 39.0
    },
    {
      "STUDYID": "CDISCPILOT01",
      "SUBJID": "1015",
      "USUBJID": "01-701-1015",
      "TRTP": "Placebo",
      "TRTPN": 5.397605346934028e-79,
      "TRTA": "Placebo",
      "TRTAN": 5.397605346934028e-79,
      "TRTSDT": 19725.0,
      "TRTEDT": 19906.0,
      "AGE": 63.0,
      "AGEGR1": "<65",
      "AGEGR1N": 1.0,
      "RACE": "WHITE",
      "RACEN": 1.0,
      "SEX": "F",
      "COMP24FL": "Y",
      "DSRAEFL": "",
      "SAFFL": "Y",
      "AVISIT": "Week 2",
      "AVISITN": 2.0,
      "ADY": 15.0,
      "ADT": 19739.0,
      "VISIT": "WEEK 2",
      "VISITNUM": 4.0,
      "PARAM": "Cholesterol (mmol/L) change from previous visit, relative to normal range",
      "PARAMCD": "_CHOL",
      "PARAMN": 134.0,
      "PARCAT1": "CHEM",
      "AVAL": -0.2,
      "BASE": null,
      "CHG": null,
      "A1LO": null,
      "A1HI": null,
      "R2A1LO": null,
      "R2A1HI": null,
      "BR2A1LO": null,
      "BR2A1HI": null,
      "ANL01FL": "",
      "ALBTRVAL": 6.157680000000001,
      "ANRIND": "N",
      "BNRIND": "",
      "ABLFL": "",
      "AENTMTFL": "",
      "LBSEQ": 47.0,
      "LBNRIND": "NORMAL",
      "LBSTRESN": 5.48232
    },
    {
      "STUDYID": "CDISCPILOT01",
      "SUBJID": "1015",
      "USUBJID": "01-701-1015",
      "TRTP": "Placebo",
      "TRTPN": 5.397605346934028e-79,
      "TRTA": "Placebo",
      "TRTAN": 5.397605346934028e-79,
      "TRTSDT": 19725.0,
      "TRTEDT": 19906.0,
      "AGE": 63.0,
      "AGEGR1": "<65",
      "AGEGR1N": 1.0,
      "RACE": "WHITE",
      "RACEN": 1.0,
      "SEX": "F",
      "COMP24FL": "Y",
      "DSRAEFL": "",
      "SAFFL": "Y",
      "AVISIT": "Week 2",
      "AVISITN": 2.0,
      "ADY": 15.0,
      "ADT": 19739.0,
      "VISIT": "WEEK 2",
      "VISITNUM": 4.0,
      "PARAM": "Creatine Kinase (U/L) change from previous visit, relative to normal range",
      "PARAMCD": "_CK",
      "PARAMN": 135.0,
      "PARCAT1": "CHEM",
      "AVAL": -0.2,
      "BASE": null,
      "CHG": null,
      "A1LO": null,
      "A1HI": null,
      "R2A1LO": null,
      "R2A1HI": null,
      "BR2A1LO": null,
      "BR2A1HI": null,
      "ANL01FL": "",
      "ALBTRVAL": 199.5,
      "ANRIND": "N",
      "BNRIND": "",
      "ABLFL": "",
      "AENTMTFL": "",
      "LBSEQ": 48.0,
      "LBNRIND": "NORMAL",
      "LBSTRESN": 54.0
    },
    {
      "STUDYID": "CDISCPILOT01",
      "SUBJID": "1015",
      "USUBJID": "01-701-1015",
      "TRTP": "Placebo",
      "TRTPN": 5.397605346934028e-79,
      "TRTA": "Placebo",
      "TRTAN": 5.397605346934028e-79,
      "TRTSDT": 19725.0,
      "TRTEDT": 19906.0,
      "AGE": 63.0,
      "AGEGR1": "<65",
      "AGEGR1N": 1.0,
      "RACE": "WHITE",
      "RACEN": 1.0,
      "SEX": "F",
      "COMP24FL": "Y",
      "DSRAEFL": "",
      "SAFFL": "Y",
      "AVISIT": "Week 4",
      "AVISITN": 4.0,
      "ADY": 29.0,
      "ADT": 19753.0,
      "VISIT": "WEEK 4",
      "VISITNUM": 5.0,
      "PARAM": "Sodium (mmol/L) change from previous visit, relative to normal range",
      "PARAMCD": "_SODIUM",
      "PARAMN": 118.0,
      "PARCAT1": "CHEM",
      "AVAL": -0.4,
      "BASE": null,
      "CHG": null,
      "A1LO": null,
      "A1HI": null,
      "R2A1LO": null,
      "R2A1HI": null,
      "BR2A1LO": null,
      "BR2A1HI": null,
      "ANL01FL": "",
      "ALBTRVAL": 77.5,
      "ANRIND": "N",
      "BNRIND": "",
      "ABLFL": "",
      "AENTMTFL": "",
      "LBSEQ": 97.0,
      "LBNRIND": "NORMAL",
      "LBSTRESN": 140.0
    },
    {
      "STUDYID": "CDISCPILOT01",
      "SUBJID": "1015",
      "USUBJID": "01-701-1015",
      "TRTP": "Placebo",
      "TRTPN": 5.397605346934028e-79,
      "TRTA": "Placebo",
      "TRTAN": 5.397605346934028e-79,
      "TRTSDT": 19725.0,
      "TRTEDT": 19906.0,
      "AGE": 63.0,
      "AGEGR1": "<65",
      "AGEGR1N": 1.0,
      "RACE": "WHITE",
      "RACEN": 1.0,
      "SEX": "F",
      "COMP24FL": "Y",
      "DSRAEFL": "",
      "SAFFL": "Y",
      "AVISIT": "Week 4",
      "AVISITN": 4.0,
      "ADY": 29.0,
      "ADT": 19753.0,
      "VISIT": "WEEK 4",
      "VISITNUM": 5.0,
      "PARAM": "Potassium (mmol/L) change from previous visit, relative to normal range",
      "PARAMCD": "_K",
      "PARAMN": 119.0,
      "PARCAT1": "CHEM",
      "AVAL": 0.1,
      "BASE": null,
      "CHG": null,
      "A1LO": null,
      "A1HI": null,
      "R2A1LO": null,
      "R2A1HI": null,
      "BR2A1LO": null,
      "BR2A1HI": null,
      "ANL01FL": "",
      "ALBTRVAL": 3.5999999999999996,
      "ANRIND": "N",
      "BNRIND": "",
      "ABLFL": "",
      "AENTMTFL": "",
      "LBSEQ": 91.0,
      "LBNRIND": "NORMAL",
      "LBSTRESN": 4.5
    },
    {
      "STUDYID": "CDISCPILOT01",
      "SUBJID": "1015",
      "USUBJID": "01-701-1015",
      "TRTP": "Placebo",
      "TRTPN": 5.397605346934028e-79,
      "TRTA": "Placebo",
      "TRTAN": 5.397605346934028e-79,
      "TRTSDT": 19725.0,
      "TRTEDT": 19906.0,
      "AGE": 63.0,
      "AGEGR1": "<65",
      "AGEGR1N": 1.0,
      "RACE": "WHITE",
      "RACEN": 1.0,
      "SEX": "F",
      "COMP24FL": "Y",
      "DSRAEFL": "",
      "SAFFL": "Y",
      "AVISIT": "Week 4",
      "AVISITN": 4.0,
      "ADY": 29.0,
      "ADT": 19753.0,
      "VISIT": "WEEK 4",
      "VISITNUM": 5.0,
      "PARAM": "Chloride (mmol/L) change from previous visit, relative to normal range",
      "PARAMCD": "_CL",
      "PARAMN": 120.0,
      "PARCAT1": "CHEM",
      "AVAL": 0.4,
      "BASE": null,
      "CHG": null,
      "A1LO": null,
      "A1HI": null,
      "R2A1LO": null,
      "R2A1HI": null,
      "BR2A1LO": null,
      "BR2A1HI": null,
      "ANL01FL": "",
      "ALBTRVAL": 61.0,
      "ANRIND": "N",
      "BNRIND": "",
      "ABLFL": "",
      "AENTMTFL": "",
      "LBSEQ": 84.0,
      "LBNRIND": "NORMAL",
      "LBSTRESN": 107.0
    },
    {
      "STUDYID": "CDISCPILOT01",
      "SUBJID": "1015",
      "USUBJID": "01-701-1015",
      "TRTP": "Placebo",
      "TRTPN": 5.397605346934028e-79,
      "TRTA": "Placebo",
      "TRTAN": 5.397605346934028e-79,
      "TRTSDT": 19725.0,
      "TRTEDT": 19906.0,
      "AGE": 63.0,
      "AGEGR1": "<65",
      "AGEGR1N": 1.0,
      "RACE": "WHITE",
      "RACEN": 1.0,
      "SEX": "F",
      "COMP24FL": "Y",
      "DSRAEFL": "",
      "SAFFL": "Y",
      "AVISIT": "Week 4",
      "AVISITN": 4.0,
      "ADY": 29.0,
      "ADT": 19753.0,
      "VISIT": "WEEK 4",
      "VISITNUM": 5.0,
      "PARAM": "Bilirubin (umol/L) change from previous visit, relative to normal range",
      "PARAMCD": "_BILI",
      "PARAMN": 121.0,
      "PARCAT1": "CHEM",
      "AVAL": -0.2,
      "BASE": null,
      "CHG": null,
      "A1LO": null,
      "A1HI": null,
      "R2A1LO": null,
      "R2A1HI": null,
      "BR2A1LO": null,
      "BR2A1HI": null,
      "ANL01FL": "",
      "ALBTRVAL": 24.66,
      "ANRIND": "N",
      "BNRIND": "",
      "ABLFL": "",
      "AENTMTFL": "",
      "LBSEQ": 79.0,
      "LBNRIND": "NORMAL",
      "LBSTRESN": 6.84
    },
    {
      "STUDYID": "CDISCPILOT01",
      "SUBJID": "1015",
      "USUBJID": "01-701-1015",
      "TRTP": "Placebo",
      "TRTPN": 5.397605346934028e-79,
      "TRTA": "Placebo",
      "TRTAN": 5.397605346934028e-79,
      "TRTSDT": 19725.0,
      "TRTEDT": 19906.0,
      "AGE": 63.0,
      "AGEGR1": "<65",
      "AGEGR1N": 1.0,
      "RACE": "WHITE",
      "RACEN": 1.0,
      "SEX": "F",
      "COMP24FL": "Y",
      "DSRAEFL": "",
      "SAFFL": "Y",
      "AVISIT": "Week 4",
      "AVISITN": 4.0,
      "ADY": 29.0,
      "ADT": 19753.0,
      "VISIT": "WEEK 4",
      "VISITNUM": 5.0,
      "PARAM": "Alkaline Phosphatase (U/L) change from previous visit, relative to normal range",
      "PARAMCD": "_ALP",
      "PARAMN": 122.0,
      "PARCAT1": "CHEM",
      "AVAL": -0.2,
      "BASE": null,
      "CHG": null,
      "A1LO": null,
      "A1HI": null,
      "R2A1LO": null,
      "R2A1HI": null,
      "BR2A1LO": null,
      "BR2A1HI": null,
      "ANL01FL": "",
      "ALBTRVAL": 131.5,
      "ANRIND": "N",
      "BNRIND": "",
      "ABLFL": "",
      "AENTMTFL": "",
      "LBSEQ": 75.0,
      "LBNRIND": "NORMAL",
      "LBSTRESN": 41.0
    },
    {
      "STUDYID": "CDISCPILOT01",
      "SUBJID": "1015",
      "USUBJID": "01-701-1015",
      "TRTP": "Placebo",
      "TRTPN": 5.397605346934028e-79,
      "TRTA": "Placebo",
      "TRTAN": 5.397605346934028e-79,
      "TRTSDT": 19725.0,
      "TRTEDT": 19906.0,
      "AGE": 63.0,
      "AGEGR1": "<65",
      "AGEGR1N": 1.0,
      "RACE": "WHITE",
      "RACEN": 1.0,
      "SEX": "F",
      "COMP24FL": "Y",
      "DSRAEFL": "",
      "SAFFL": "Y",
      "AVISIT": "Week 4",
      "AVISITN": 4.0,
      "ADY": 29.0,
      "ADT": 19753.0,
      "VISIT": "WEEK 4",
      "VISITNUM": 5.0,
      "PARAM": "Gamma Glutamyl Transferase (U/L) change from previous visit, relative to normal range",
      "PARAMCD": "_GGT",
      "PARAMN": 123.0,
      "PARCAT1": "CHEM",
      "AVAL": -0.2,
      "BASE": null,
      "CHG": null,
      "A1LO": null,
      "A1HI": null,
      "R2A1LO": null,
      "R2A1HI": null,
      "BR2A1LO": null,
      "BR2A1HI": null,
      "ANL01FL": "",
      "ALBTRVAL": 60.0,
      "ANRIND": "N",
      "BNRIND": "",
      "ABLFL": "",
      "AENTMTFL": "",
      "LBSEQ": 87.0,
      "LBNRIND": "NORMAL",
      "LBSTRESN": 15.0
    },
    {
      "STUDYID": "CDISCPILOT01",
      "SUBJID": "1015",
      "USUBJID": "01-701-1015",
      "TRTP": "Placebo",
      "TRTPN": 5.397605346934028e-79,
      "TRTA": "Placebo",
      "TRTAN": 5.397605346934028e-79,
      "TRTSDT": 19725.0,
      "TRTEDT": 19906.0,
      "AGE": 63.0,
      "AGEGR1": "<65",
      "AGEGR1N": 1.0,
      "RACE": "WHITE",
      "RACEN": 1.0,
      "SEX": "F",
      "COMP24FL": "Y",
      "DSRAEFL": "",
      "SAFFL": "Y",
      "AVISIT": "Week 4",
      "AVISITN": 4.0,
      "ADY": 29.0,
      "ADT": 19753.0,
      "VISIT": "WEEK 4",
      "VISITNUM": 5.0,
      "PARAM": "Alanine Aminotransferase (U/L) change from previous visit, relative to normal range",
      "PARAMCD": "_ALT",
      "PARAMN": 124.0,
      "PARCAT1": "CHEM",
      "AVAL": -1.6,
      "BASE": null,
      "CHG": null,
      "A1LO": null,
      "A1HI": null,
      "R2A1LO": null,
      "R2A1HI": null,
      "BR2A1LO": null,
      "BR2A1HI": null,
      "ANL01FL": "Y",
      "ALBTRVAL": 33.0,
      "ANRIND": "L",
      "BNRIND": "",
      "ABLFL": "",
      "AENTMTFL": "",
      "LBSEQ": 76.0,
      "LBNRIND": "NORMAL",
      "LBSTRESN": 18.0
    },
    {
      "STUDYID": "CDISCPILOT01",
      "SUBJID": "1015",
      "USUBJID": "01-701-1015",
      "TRTP": "Placebo",
      "TRTPN": 5.397605346934028e-79,
      "TRTA": "Placebo",
      "TRTAN": 5.397605346934028e-79,
      "TRTSDT": 19725.0,
      "TRTEDT": 19906.0,
      "AGE": 63.0,
      "AGEGR1": "<65",
      "AGEGR1N": 1.0,
      "RACE": "WHITE",
      "RACEN": 1.0,
      "SEX": "F",
      "COMP24FL": "Y",
      "DSRAEFL": "",
      "SAFFL": "Y",
      "AVISIT": "Week 4",
      "AVISITN": 4.0,
      "ADY": 29.0,
      "ADT": 19753.0,
      "VISIT": "WEEK 4",
      "VISITNUM": 5.0,
      "PARAM": "Aspartate Aminotransferase (U/L) change from previous visit, relative to normal range",
      "PARAMCD": "_AST",
      "PARAMN": 125.0,
      "PARCAT1": "CHEM",
      "AVAL": -1.0,
      "BASE": null,
      "CHG": null,
      "A1LO": null,
      "A1HI": null,
      "R2A1LO": null,
      "R2A1HI": null,
      "BR2A1LO": null,
      "BR2A1HI": null,
      "ANL01FL": "Y",
      "ALBTRVAL": 30.0,
      "ANRIND": "N",
      "BNRIND": "",
      "ABLFL": "",
      "AENTMTFL": "",
      "LBSEQ": 77.0,
      "LBNRIND": "NORMAL",
      "LBSTRESN": 21.0
    },
    {
      "STUDYID": "CDISCPILOT01",
      "SUBJID": "1015",
      "USUBJID": "01-701-1015",
      "TRTP": "Placebo",
      "TRTPN": 5.397605346934028e-79,
      "TRTA": "Placebo",
      "TRTAN": 5.397605346934028e-79,
      "TRTSDT": 19725.0,
      "TRTEDT": 19906.0,
      "AGE": 63.0,
      "AGEGR1": "<65",
      "AGEGR1N": 1.0,
      "RACE": "WHITE",
      "RACEN": 1.0,
      "SEX": "F",
      "COMP24FL": "Y",
      "DSRAEFL": "",
      "SAFFL": "Y",
      "AVISIT": "Week 4",
      "AVISITN": 4.0,
      "ADY": 29.0,
      "ADT": 19753.0,
      "VISIT": "WEEK 4",
      "VISITNUM": 5.0,
      "PARAM": "Blood Urea Nitrogen (mmol/L) change from previous visit, relative to normal range",
      "PARAMCD": "_BUN",
      "PARAMN": 126.0,
      "PARCAT1": "CHEM",
      "AVAL": -0.2,
      "BASE": null,
      "CHG": null,
      "A1LO": null,
      "A1HI": null,
      "R2A1LO": null,
      "R2A1HI": null,
      "BR2A1LO": null,
      "BR2A1HI": null,
      "ANL01FL": "",
      "ALBTRVAL": 10.043999999999999,
      "ANRIND": "N",
      "BNRIND": "",
      "ABLFL": "",
      "AENTMTFL": "",
      "LBSEQ": 80.0,
      "LBNRIND": "NORMAL",
      "LBSTRESN": 2.856
    },
    {
      "STUDYID": "CDISCPILOT01",
      "SUBJID": "1015",
      "USUBJID": "01-701-1015",
      "TRTP": "Placebo",
      "TRTPN": 5.397605346934028e-79,
      "TRTA": "Placebo",
      "TRTAN": 5.397605346934028e-79,
      "TRTSDT": 19725.0,
      "TRTEDT": 19906.0,
      "AGE": 63.0,
      "AGEGR1": "<65",
      "AGEGR1N": 1.0,
      "RACE": "WHITE",
      "RACEN": 1.0,
      "SEX": "F",
      "COMP24FL": "Y",
      "DSRAEFL": "",
      "SAFFL": "Y",
      "AVISIT": "Week 4",
      "AVISITN": 4.0,
      "ADY": 29.0,
      "ADT": 19753.0,
      "VISIT": "WEEK 4",
      "VISITNUM": 5.0,
      "PARAM": "Creatinine (umol/L) change from previous visit, relative to normal range",
      "PARAMCD": "_CREAT",
      "PARAMN": 127.0,
      "PARCAT1": "CHEM",
      "AVAL": -0.6,
      "BASE": null,
      "CHG": null,
      "A1LO": null,
      "A1HI": null,
      "R2A1LO": null,
      "R2A1HI": null,
      "BR2A1LO": null,
      "BR2A1HI": null,
      "ANL01FL": "Y",
      "ALBTRVAL": 115.28,
      "ANRIND": "N",
      "BNRIND": "",
      "ABLFL": "",
      "AENTMTFL": "",
      "LBSEQ": 85.0,
      "LBNRIND": "NORMAL",
      "LBSTRESN": 70.72
    },
    {
      "STUDYID": "CDISCPILOT01",
      "SUBJID": "1015",
      "USUBJID": "01-701-1015",
      "TRTP": "Placebo",
      "TRTPN": 5.397605346934028e-79,
      "TRTA": "Placebo",
      "TRTAN": 5.397605346934028e-79,
      "TRTSDT": 19725.0,
      "TRTEDT": 19906.0,
      "AGE": 63.0,
      "AGEGR1": "<65",
      "AGEGR1N": 1.0,
      "RACE": "WHITE",
      "RACEN": 1.0,
      "SEX": "F",
      "COMP24FL": "Y",
      "DSRAEFL": "",
      "SAFFL": "Y",
      "AVISIT": "Week 4",
      "AVISITN": 4.0,
      "ADY": 29.0,
      "ADT": 19753.0,
      "VISIT": "WEEK 4",
      "VISITNUM": 5.0,
      "PARAM": "Urate (umol/L) change from previous visit, relative to normal range",
      "PARAMCD": "_URATE",
      "PARAMN": 128.0,
      "PARCAT1": "CHEM",
      "AVAL": -0.2,
      "BASE": null,
      "CHG": null,
      "A1LO": null,
      "A1HI": null,
      "R2A1LO": null,
      "R2A1HI": null,
      "BR2A1LO": null,
      "BR2A1HI": null,
      "ANL01FL": "",
      "ALBTRVAL": 407.288,
      "ANRIND": "N",
      "BNRIND": "",
      "ABLFL": "",
      "AENTMTFL": "",
      "LBSEQ": 102.0,
      "LBNRIND": "NORMAL",
      "LBSTRESN": 261.712
    },
    {
      "STUDYID": "CDISCPILOT01",
      "SUBJID": "1015",
      "USUBJID": "01-701-1015",
      "TRTP": "Placebo",
      "TRTPN": 5.397605346934028e-79,
      "TRTA": "Placebo",
      "TRTAN": 5.397605346934028e-79,
      "TRTSDT": 19725.0,
      "TRTEDT": 19906.0,
      "AGE": 63.0,
      "AGEGR1": "<65",
      "AGEGR1N": 1.0,
      "RACE": "WHITE",
      "RACEN": 1.0,
      "SEX": "F",
      "COMP24FL": "Y",
      "DSRAEFL": "",
      "SAFFL": "Y",
      "AVISIT": "Week 4",
      "AVISITN": 4.0,
      "ADY": 29.0,
      "ADT": 19753.0,
      "VISIT": "WEEK 4",
      "VISITNUM": 5.0,
      "PARAM": "Phosphate (mmol/L) change from previous visit, relative to normal range",
      "PARAMCD": "_PHOS",
      "PARAMN": 129.0,
      "PARCAT1": "CHEM",
      "AVAL": -0.3,
      "BASE": null,
      "CHG": null,
      "A1LO": null,
      "A1HI": null,
      "R2A1LO": null,
      "R2A1HI": null,
      "BR2A1LO": null,
      "BR2A1HI": null,
      "ANL01FL": "",
      "ALBTRVAL": 1.3448499999999997,
      "ANRIND": "N",
      "BNRIND": "",
      "ABLFL": "",
      "AENTMTFL": "",
      "LBSEQ": 98.0,
      "LBNRIND": "NORMAL",
      "LBSTRESN": 1.13015
    },
    {
      "STUDYID": "CDISCPILOT01",
      "SUBJID": "1015",
      "USUBJID": "01-701-1015",
      "TRTP": "Placebo",
      "TRTPN": 5.397605346934028e-79,
      "TRTA": "Placebo",
      "TRTAN": 5.397605346934028e-79,
      "TRTSDT": 19725.0,
      "TRTEDT": 19906.0,
      "AGE": 63.0,
      "AGEGR1": "<65",
      "AGEGR1N": 1.0,
      "RACE": "WHITE",
      "RACEN": 1.0,
      "SEX": "F",
      "COMP24FL": "Y",
      "DSRAEFL": "",
      "SAFFL": "Y",
      "AVISIT": "Week 4",
      "AVISITN": 4.0,
      "ADY": 29.0,
      "ADT": 19753.0,
      "VISIT": "WEEK 4",
      "VISITNUM": 5.0,
      "PARAM": "Calcium (mmol/L) change from previous visit, relative to normal range",
      "PARAMCD": "_CA",
      "PARAMN": 130.0,
      "PARCAT1": "CHEM",
      "AVAL": -0.3,
      "BASE": null,
      "CHG": null,
      "A1LO": null,
      "A1HI": null,
      "R2A1LO": null,
      "R2A1HI": null,
      "BR2A1LO": null,
      "BR2A1HI": null,
      "ANL01FL": "",
      "ALBTRVAL": 1.5845499999999997,
      "ANRIND": "N",
      "BNRIND": "",
      "ABLFL": "",
      "AENTMTFL": "",
      "LBSEQ": 81.0,
      "LBNRIND": "NORMAL",
      "LBSTRESN": 2.27045
    },
    {
      "STUDYID": "CDISCPILOT01",
      "SUBJID": "1015",
      "USUBJID": "01-701-1015",
      "TRTP": "Placebo",
      "TRTPN": 5.397605346934028e-79,
      "TRTA": "Placebo",
      "TRTAN": 5.397605346934028e-79,
      "TRTSDT": 19725.0,
      "TRTEDT": 19906.0,
      "AGE": 63.0,
      "AGEGR1": "<65",
      "AGEGR1N": 1.0,
      "RACE": "WHITE",
      "RACEN": 1.0,
      "SEX": "F",
      "COMP24FL": "Y",
      "DSRAEFL": "",
      "SAFFL": "Y",
      "AVISIT": "Week 4",
      "AVISITN": 4.0,
      "ADY": 29.0,
      "ADT": 19753.0,
      "VISIT": "WEEK 4",
      "VISITNUM": 5.0,
      "PARAM": "Glucose (mmol/L) change from previous visit, relative to normal range",
      "PARAMCD": "_GLUC",
      "PARAMN": 131.0,
      "PARCAT1": "CHEM",
      "AVAL": -0.1,
      "BASE": null,
      "CHG": null,
      "A1LO": null,
      "A1HI": null,
      "R2A1LO": null,
      "R2A1HI": null,
      "BR2A1LO": null,
      "BR2A1HI": null,
      "ANL01FL": "Y",
      "ALBTRVAL": 16.464709999999997,
      "ANRIND": "N",
      "BNRIND": "",
      "ABLFL": "",
      "AENTMTFL": "",
      "LBSEQ": 88.0,
      "LBNRIND": "NORMAL",
      "LBSTRESN": 4.3852899999999995
    },
    {
      "STUDYID": "CDISCPILOT01",
      "SUBJID": "1015",
      "USUBJID": "01-701-1015",
      "TRTP": "Placebo",
      "TRTPN": 5.397605346934028e-79,
      "TRTA": "Placebo",
      "TRTAN": 5.397605346934028e-79,
      "TRTSDT": 19725.0,
      "TRTEDT": 19906.0,
      "AGE": 63.0,
      "AGEGR1": "<65",
      "AGEGR1N": 1.0,
      "RACE": "WHITE",
      "RACEN": 1.0,
      "SEX": "F",
      "COMP24FL": "Y",
      "DSRAEFL": "",
      "SAFFL": "Y",
      "AVISIT": "Week 4",
      "AVISITN": 4.0,
      "ADY": 29.0,
      "ADT": 19753.0,
      "VISIT": "WEEK 4",
      "VISITNUM": 5.0,
      "PARAM": "Protein (g/L) change from previous visit, relative to normal range",
      "PARAMCD": "_PROT",
      "PARAMN": 132.0,
      "PARCAT1": "CHEM",
      "AVAL": -0.8,
      "BASE": null,
      "CHG": null,
      "A1LO": null,
      "A1HI": null,
      "R2A1LO": null,
      "R2A1HI": null,
      "BR2A1LO": null,
      "BR2A1HI": null,
      "ANL01FL": "",
      "ALBTRVAL": 51.0,
      "ANRIND": "N",
      "BNRIND": "",
      "ABLFL": "",
      "AENTMTFL": "",
      "LBSEQ": 100.0,
      "LBNRIND": "NORMAL",
      "LBSTRESN": 69.0
    },
    {
      "STUDYID": "CDISCPILOT01",
      "SUBJID": "1015",
      "USUBJID": "01-701-1015",
      "TRTP": "Placebo",
      "TRTPN": 5.397605346934028e-79,
      "TRTA": "Placebo",
      "TRTAN": 5.397605346934028e-79,
      "TRTSDT": 19725.0,
      "TRTEDT": 19906.0,
      "AGE": 63.0,
      "AGEGR1": "<65",
      "AGEGR1N": 1.0,
      "RACE": "WHITE",
      "RACEN": 1.0,
      "SEX": "F",
      "COMP24FL": "Y",
      "DSRAEFL": "",
      "SAFFL": "Y",
      "AVISIT": "Week 4",
      "AVISITN": 4.0,
      "ADY": 29.0,
      "ADT": 19753.0,
      "VISIT": "WEEK 4",
      "VISITNUM": 5.0,
      "PARAM": "Albumin (g/L) change from previous visit, relative to normal range",
      "PARAMCD": "_ALB",
      "PARAMN": 133.0,
      "PARCAT1": "CHEM",
      "AVAL": -0.1,
      "BASE": null,
      "CHG": null,
      "A1LO": null,
      "A1HI": null,
      "R2A1LO": null,
      "R2A1HI": null,
      "BR2A1LO": null,
      "BR2A1HI": null,
      "ANL01FL": "",
      "ALBTRVAL": 35.5,
      "ANRIND": "N",
      "BNRIND": "",
      "ABLFL": "",
      "AENTMTFL": "",
      "LBSEQ": 74.0,
      "LBNRIND": "NORMAL",
      "LBSTRESN": 38.0
    },
    {
      "STUDYID": "CDISCPILOT01",
      "SUBJID": "1015",
      "USUBJID": "01-701-1015",
      "TRTP": "Placebo",
      "TRTPN": 5.397605346934028e-79,
      "TRTA": "Placebo",
      "TRTAN": 5.397605346934028e-79,
      "TRTSDT": 19725.0,
      "TRTEDT": 19906.0,
      "AGE": 63.0,
      "AGEGR1": "<65",
      "AGEGR1N": 1.0,
      "RACE": "WHITE",
      "RACEN": 1.0,
      "SEX": "F",
      "COMP24FL": "Y",
      "DSRAEFL": "",
      "SAFFL": "Y",
      "AVISIT": "Week 4",
      "AVISITN": 4.0,
      "ADY": 29.0,
      "ADT": 19753.0,
      "VISIT": "WEEK 4",
      "VISITNUM": 5.0,
      "PARAM": "Cholesterol (mmol/L) change from previous visit, relative to normal range",
      "PARAMCD": "_CHOL",
      "PARAMN": 134.0,
      "PARCAT1": "CHEM",
      "AVAL": -0.3,
      "BASE": null,
      "CHG": null,
      "A1LO": null,
      "A1HI": null,
      "R2A1LO": null,
      "R2A1HI": null,
      "BR2A1LO": null,
      "BR2A1HI": null,
      "ANL01FL": "Y",
      "ALBTRVAL": 6.649020000000001,
      "ANRIND": "N",
      "BNRIND": "",
      "ABLFL": "",
      "AENTMTFL": "",
      "LBSEQ": 82.0,
      "LBNRIND": "NORMAL",
      "LBSTRESN": 4.9909799999999995
    },
    {
      "STUDYID": "CDISCPILOT01",
      "SUBJID": "1015",
      "USUBJID": "01-701-1015",
      "TRTP": "Placebo",
      "TRTPN": 5.397605346934028e-79,
      "TRTA": "Placebo",
      "TRTAN": 5.397605346934028e-79,
      "TRTSDT": 19725.0,
      "TRTEDT": 19906.0,
      "AGE": 63.0,
      "AGEGR1": "<65",
      "AGEGR1N": 1.0,
      "RACE": "WHITE",
      "RACEN": 1.0,
      "SEX": "F",
      "COMP24FL": "Y",
      "DSRAEFL": "",
      "SAFFL": "Y",
      "AVISIT": "Week 4",
      "AVISITN": 4.0,
      "ADY": 29.0,
      "ADT": 19753.0,
      "VISIT": "WEEK 4",
      "VISITNUM": 5.0,
      "PARAM": "Creatine Kinase (U/L) change from previous visit, relative to normal range",
      "PARAMCD": "_CK",
      "PARAMN": 135.0,
      "PARCAT1": "CHEM",
      "AVAL": -0.1,
      "BASE": null,
      "CHG": null,
      "A1LO": null,
      "A1HI": null,
      "R2A1LO": null,
      "R2A1HI": null,
      "BR2A1LO": null,
      "BR2A1HI": null,
      "ANL01FL": "",
      "ALBTRVAL": 208.5,
      "ANRIND": "N",
      "BNRIND": "",
      "ABLFL": "",
      "AENTMTFL": "",
      "LBSEQ": 83.0,
      "LBNRIND": "NORMAL",
      "LBSTRESN": 45.0
    },
    {
      "STUDYID": "CDISCPILOT01",
      "SUBJID": "1015",
      "USUBJID": "01-701-1015",
      "TRTP": "Placebo",
      "TRTPN": 5.397605346934028e-79,
      "TRTA": "Placebo",
      "TRTAN": 5.397605346934028e-79,
      "TRTSDT": 19725.0,
      "TRTEDT": 19906.0,
      "AGE": 63.0,
      "AGEGR1": "<65",
      "AGEGR1N": 1.0,
      "RACE": "WHITE",
      "RACEN": 1.0,
      "SEX": "F",
      "COMP24FL": "Y",
      "DSRAEFL": "",
      "SAFFL": "Y",
      "AVISIT": "Week 6",
      "AVISITN": 6.0,
      "ADY": 42.0,
      "ADT": 19766.0,
      "VISIT": "WEEK 6",
      "VISITNUM": 7.0,
      "PARAM": "Sodium (mmol/L) change from previous visit, relative to normal range",
      "PARAMCD": "_SODIUM",
      "PARAMN": 118.0,
      "PARCAT1": "CHEM",
      "AVAL": 5.397605346934028e-79,
      "BASE": null,
      "CHG": null,
      "A1LO": null,
      "A1HI": null,
      "R2A1LO": null,
      "R2A1HI": null,
      "BR2A1LO": null,
      "BR2A1HI": null,
      "ANL01FL": "",
      "ALBTRVAL": 77.5,
      "ANRIND": "N",
      "BNRIND": "",
      "ABLFL": "",
      "AENTMTFL": "",
      "LBSEQ": 127.0,
      "LBNRIND": "NORMAL",
      "LBSTRESN": 140.0
    },
    {
      "STUDYID": "CDISCPILOT01",
      "SUBJID": "1015",
      "USUBJID": "01-701-1015",
      "TRTP": "Placebo",
      "TRTPN": 5.397605346934028e-79,
      "TRTA": "Placebo",
      "TRTAN": 5.397605346934028e-79,
      "TRTSDT": 19725.0,
      "TRTEDT": 19906.0,
      "AGE": 63.0,
      "AGEGR1": "<65",
      "AGEGR1N": 1.0,
      "RACE": "WHITE",
      "RACEN": 1.0,
      "SEX": "F",
      "COMP24FL": "Y",
      "DSRAEFL": "",
      "SAFFL": "Y",
      "AVISIT": "Week 6",
      "AVISITN": 6.0,
      "ADY": 42.0,
      "ADT": 19766.0,
      "VISIT": "WEEK 6",
      "VISITNUM": 7.0,
      "PARAM": "Potassium (mmol/L) change from previous visit, relative to normal range",
      "PARAMCD": "_K",
      "PARAMN": 119.0,
      "PARCAT1": "CHEM",
      "AVAL": 0.1,
      "BASE": null,
      "CHG": null,
      "A1LO": null,
      "A1HI": null,
      "R2A1LO": null,
      "R2A1HI": null,
      "BR2A1LO": null,
      "BR2A1HI": null,
      "ANL01FL": "",
      "ALBTRVAL": 3.5,
      "ANRIND": "N",
      "BNRIND": "",
      "ABLFL": "",
      "AENTMTFL": "",
      "LBSEQ": 121.0,
      "LBNRIND": "NORMAL",
      "LBSTRESN": 4.6
    },
    {
      "STUDYID": "CDISCPILOT01",
      "SUBJID": "1015",
      "USUBJID": "01-701-1015",
      "TRTP": "Placebo",
      "TRTPN": 5.397605346934028e-79,
      "TRTA": "Placebo",
      "TRTAN": 5.397605346934028e-79,
      "TRTSDT": 19725.0,
      "TRTEDT": 19906.0,
      "AGE": 63.0,
      "AGEGR1": "<65",
      "AGEGR1N": 1.0,
      "RACE": "WHITE",
      "RACEN": 1.0,
      "SEX": "F",
      "COMP24FL": "Y",
      "DSRAEFL": "",
      "SAFFL": "Y",
      "AVISIT": "Week 6",
      "AVISITN": 6.0,
      "ADY": 42.0,
      "ADT": 19766.0,
      "VISIT": "WEEK 6",
      "VISITNUM": 7.0,
      "PARAM": "Chloride (mmol/L) change from previous visit, relative to normal range",
      "PARAMCD": "_CL",
      "PARAMN": 120.0,
      "PARCAT1": "CHEM",
      "AVAL": -0.2,
      "BASE": null,
      "CHG": null,
      "A1LO": null,
      "A1HI": null,
      "R2A1LO": null,
      "R2A1HI": null,
      "BR2A1LO": null,
      "BR2A1HI": null,
      "ANL01FL": "",
      "ALBTRVAL": 63.0,
      "ANRIND": "N",
      "BNRIND": "",
      "ABLFL": "",
      "AENTMTFL": "",
      "LBSEQ": 114.0,
      "LBNRIND": "NORMAL",
      "LBSTRESN": 105.0
    },
    {
      "STUDYID": "CDISCPILOT01",
      "SUBJID": "1015",
      "USUBJID": "01-701-1015",
      "TRTP": "Placebo",
      "TRTPN": 5.397605346934028e-79,
      "TRTA": "Placebo",
      "TRTAN": 5.397605346934028e-79,
      "TRTSDT": 19725.0,
      "TRTEDT": 19906.0,
      "AGE": 63.0,
      "AGEGR1": "<65",
      "AGEGR1N": 1.0,
      "RACE": "WHITE",
      "RACEN": 1.0,
      "SEX": "F",
      "COMP24FL": "Y",
      "DSRAEFL": "",
      "SAFFL": "Y",
      "AVISIT": "Week 6",
      "AVISITN": 6.0,
      "ADY": 42.0,
      "ADT": 19766.0,
      "VISIT": "WEEK 6",
      "VISITNUM": 7.0,
      "PARAM": "Bilirubin (umol/L) change from previous visit, relative to normal range",
      "PARAMCD": "_BILI",
      "PARAMN": 121.0,
      "PARCAT1": "CHEM",
      "AVAL": -0.2,
      "BASE": null,
      "CHG": null,
      "A1LO": null,
      "A1HI": null,
      "R2A1LO": null,
      "R2A1HI": null,
      "BR2A1LO": null,
      "BR2A1HI": null,
      "ANL01FL": "",
      "ALBTRVAL": 26.37,
      "ANRIND": "N",
      "BNRIND": "",
      "ABLFL": "",
      "AENTMTFL": "",
      "LBSEQ": 109.0,
      "LBNRIND": "NORMAL",
      "LBSTRESN": 5.13
    },
    {
      "STUDYID": "CDISCPILOT01",
      "SUBJID": "1015",
      "USUBJID": "01-701-1015",
      "TRTP": "Placebo",
      "TRTPN": 5.397605346934028e-79,
      "TRTA": "Placebo",
      "TRTAN": 5.397605346934028e-79,
      "TRTSDT": 19725.0,
      "TRTEDT": 19906.0,
      "AGE": 63.0,
      "AGEGR1": "<65",
      "AGEGR1N": 1.0,
      "RACE": "WHITE",
      "RACEN": 1.0,
      "SEX": "F",
      "COMP24FL": "Y",
      "DSRAEFL": "",
      "SAFFL": "Y",
      "AVISIT": "Week 6",
      "AVISITN": 6.0,
      "ADY": 42.0,
      "ADT": 19766.0,
      "VISIT": "WEEK 6",
      "VISITNUM": 7.0,
      "PARAM": "Alkaline Phosphatase (U/L) change from previous visit, relative to normal range",
      "PARAMCD": "_ALP",
      "PARAMN": 122.0,
      "PARCAT1": "CHEM",
      "AVAL": 0.1,
      "BASE": null,
      "CHG": null,
      "A1LO": null,
      "A1HI": null,
      "R2A1LO": null,
      "R2A1HI": null,
      "BR2A1LO": null,
      "BR2A1HI": null,
      "ANL01FL": "",
      "ALBTRVAL": 129.5,
      "ANRIND": "N",
      "BNRIND": "",
      "ABLFL": "",
      "AENTMTFL": "",
      "LBSEQ": 105.0,
      "LBNRIND": "NORMAL",
      "LBSTRESN": 43.0
    },
    {
      "STUDYID": "CDISCPILOT01",
      "SUBJID": "1015",
      "USUBJID": "01-701-1015",
      "TRTP": "Placebo",
      "TRTPN": 5.397605346934028e-79,
      "TRTA": "Placebo",
      "TRTAN": 5.397605346934028e-79,
      "TRTSDT": 19725.0,
      "TRTEDT": 19906.0,
      "AGE": 63.0,
      "AGEGR1": "<65",
      "AGEGR1N": 1.0,
      "RACE": "WHITE",
      "RACEN": 1.0,
      "SEX": "F",
      "COMP24FL": "Y",
      "DSRAEFL": "",
      "SAFFL": "Y",
      "AVISIT": "Week 6",
      "AVISITN": 6.0,
      "ADY": 42.0,
      "ADT": 19766.0,
      "VISIT": "WEEK 6",
      "VISITNUM": 7.0,
      "PARAM": "Gamma Glutamyl Transferase (U/L) change from previous visit, relative to normal range",
      "PARAMCD": "_GGT",
      "PARAMN": 123.0,
      "PARCAT1": "CHEM",
      "AVAL": 5.397605346934028e-79,
      "BASE": null,
      "CHG": null,
      "A1LO": null,
      "A1HI": null,
      "R2A1LO": null,
      "R2A1HI": null,
      "BR2A1LO": null,
      "BR2A1HI": null,
      "ANL01FL": "",
      "ALBTRVAL": 61.0,
      "ANRIND": "N",
      "BNRIND": "",
      "ABLFL": "",
      "AENTMTFL": "",
      "LBSEQ": 117.0,
      "LBNRIND": "NORMAL",
      "LBSTRESN": 14.0
    },
    {
      "STUDYID": "CDISCPILOT01",
      "SUBJID": "1015",
      "USUBJID": "01-701-1015",
      "TRTP": "Placebo",
      "TRTPN": 5.397605346934028e-79,
      "TRTA": "Placebo",
      "TRTAN": 5.397605346934028e-79,
      "TRTSDT": 19725.0,
      "TRTEDT": 19906.0,
      "AGE": 63.0,
      "AGEGR1": "<65",
      "AGEGR1N": 1.0,
      "RACE": "WHITE",
      "RACEN": 1.0,
      "SEX": "F",
      "COMP24FL": "Y",
      "DSRAEFL": "",
      "SAFFL": "Y",
      "AVISIT": "Week 6",
      "AVISITN": 6.0,
      "ADY": 42.0,
      "ADT": 19766.0,
      "VISIT": "WEEK 6",
      "VISITNUM": 7.0,
      "PARAM": "Alanine Aminotransferase (U/L) change from previous visit, relative to normal range",
      "PARAMCD": "_ALT",
      "PARAMN": 124.0,
      "PARCAT1": "CHEM",
      "AVAL": 0.6,
      "BASE": null,
      "CHG": null,
      "A1LO": null,
      "A1HI": null,
      "R2A1LO": null,
      "R2A1HI": null,
      "BR2A1LO": null,
      "BR2A1HI": null,
      "ANL01FL": "",
      "ALBTRVAL": 25.0,
      "ANRIND": "N",
      "BNRIND": "",
      "ABLFL": "",
      "AENTMTFL": "",
      "LBSEQ": 106.0,
      "LBNRIND": "NORMAL",
      "LBSTRESN": 26.0
    },
    {
      "STUDYID": "CDISCPILOT01",
      "SUBJID": "1015",
      "USUBJID": "01-701-1015",
      "TRTP": "Placebo",
      "TRTPN": 5.397605346934028e-79,
      "TRTA": "Placebo",
      "TRTAN": 5.397605346934028e-79,
      "TRTSDT": 19725.0,
      "TRTEDT": 19906.0,
      "AGE": 63.0,
      "AGEGR1": "<65",
      "AGEGR1N": 1.0,
      "RACE": "WHITE",
      "RACEN": 1.0,
      "SEX": "F",
      "COMP24FL": "Y",
      "DSRAEFL": "",
      "SAFFL": "Y",
      "AVISIT": "Week 6",
      "AVISITN": 6.0,
      "ADY": 42.0,
      "ADT": 19766.0,
      "VISIT": "WEEK 6",
      "VISITNUM": 7.0,
      "PARAM": "Aspartate Aminotransferase (U/L) change from previous visit, relative to normal range",
      "PARAMCD": "_AST",
      "PARAMN": 125.0,
      "PARCAT1": "CHEM",
      "AVAL": 0.4,
      "BASE": null,
      "CHG": null,
      "A1LO": null,
      "A1HI": null,
      "R2A1LO": null,
      "R2A1HI": null,
      "BR2A1LO": null,
      "BR2A1HI": null,
      "ANL01FL": "",
      "ALBTRVAL": 25.0,
      "ANRIND": "N",
      "BNRIND": "",
      "ABLFL": "",
      "AENTMTFL": "",
      "LBSEQ": 107.0,
      "LBNRIND": "NORMAL",
      "LBSTRESN": 26.0
    },
    {
      "STUDYID": "CDISCPILOT01",
      "SUBJID": "1015",
      "USUBJID": "01-701-1015",
      "TRTP": "Placebo",
      "TRTPN": 5.397605346934028e-79,
      "TRTA": "Placebo",
      "TRTAN": 5.397605346934028e-79,
      "TRTSDT": 19725.0,
      "TRTEDT": 19906.0,
      "AGE": 63.0,
      "AGEGR1": "<65",
      "AGEGR1N": 1.0,
      "RACE": "WHITE",
      "RACEN": 1.0,
      "SEX": "F",
      "COMP24FL": "Y",
      "DSRAEFL": "",
      "SAFFL": "Y",
      "AVISIT": "Week 6",
      "AVISITN": 6.0,
      "ADY": 42.0,
      "ADT": 19766.0,
      "VISIT": "WEEK 6",
      "VISITNUM": 7.0,
      "PARAM": "Blood Urea Nitrogen (mmol/L) change from previous visit, relative to normal range",
      "PARAMCD": "_BUN",
      "PARAMN": 126.0,
      "PARCAT1": "CHEM",
      "AVAL": 0.4,
      "BASE": null,
      "CHG": null,
      "A1LO": null,
      "A1HI": null,
      "R2A1LO": null,
      "R2A1HI": null,
      "BR2A1LO": null,
      "BR2A1HI": null,
      "ANL01FL": "Y",
      "ALBTRVAL": 8.616,
      "ANRIND": "N",
      "BNRIND": "",
      "ABLFL": "",
      "AENTMTFL": "",
      "LBSEQ": 110.0,
      "LBNRIND": "NORMAL",
      "LBSTRESN": 4.284
    },
    {
      "STUDYID": "CDISCPILOT01",
      "SUBJID": "1015",
      "USUBJID": "01-701-1015",
      "TRTP": "Placebo",
      "TRTPN": 5.397605346934028e-79,
      "TRTA": "Placebo",
      "TRTAN": 5.397605346934028e-79,
      "TRTSDT": 19725.0,
      "TRTEDT": 19906.0,
      "AGE": 63.0,
      "AGEGR1": "<65",
      "AGEGR1N": 1.0,
      "RACE": "WHITE",
      "RACEN": 1.0,
      "SEX": "F",
      "COMP24FL": "Y",
      "DSRAEFL": "",
      "SAFFL": "Y",
      "AVISIT": "Week 6",
      "AVISITN": 6.0,
      "ADY": 42.0,
      "ADT": 19766.0,
      "VISIT": "WEEK 6",
      "VISITNUM": 7.0,
      "PARAM": "Creatinine (umol/L) change from previous visit, relative to normal range",
      "PARAMCD": "_CREAT",
      "PARAMN": 127.0,
      "PARCAT1": "CHEM",
      "AVAL": 0.6,
      "BASE": null,
      "CHG": null,
      "A1LO": null,
      "A1HI": null,
      "R2A1LO": null,
      "R2A1HI": null,
      "BR2A1LO": null,
      "BR2A1HI": null,
      "ANL01FL": "",
      "ALBTRVAL": 97.60000000000001,
      "ANRIND": "N",
      "BNRIND": "",
      "ABLFL": "",
      "AENTMTFL": "",
      "LBSEQ": 115.0,
      "LBNRIND": "NORMAL",
      "LBSTRESN": 88.39999999999999
    },
    {
      "STUDYID": "CDISCPILOT01",
      "SUBJID": "1015",
      "USUBJID": "01-701-1015",
      "TRTP": "Placebo",
      "TRTPN": 5.397605346934028e-79,
      "TRTA": "Placebo",
      "TRTAN": 5.397605346934028e-79,
      "TRTSDT": 19725.0,
      "TRTEDT": 19906.0,
      "AGE": 63.0,
      "AGEGR1": "<65",
      "AGEGR1N": 1.0,
      "RACE": "WHITE",
      "RACEN": 1.0,
      "SEX": "F",
      "COMP24FL": "Y",
      "DSRAEFL": "",
      "SAFFL": "Y",
      "AVISIT": "Week 6",
      "AVISITN": 6.0,
      "ADY": 42.0,
      "ADT": 19766.0,
      "VISIT": "WEEK 6",
      "VISITNUM": 7.0,
      "PARAM": "Urate (umol/L) change from previous visit, relative to normal range",
      "PARAMCD": "_URATE",
      "PARAMN": 128.0,
      "PARCAT1": "CHEM",
      "AVAL": 0.1,
      "BASE": null,
      "CHG": null,
      "A1LO": null,
      "A1HI": null,
      "R2A1LO": null,
      "R2A1HI": null,
      "BR2A1LO": null,
      "BR2A1HI": null,
      "ANL01FL": "",
      "ALBTRVAL": 395.392,
      "ANRIND": "N",
      "BNRIND": "",
      "ABLFL": "",
      "AENTMTFL": "",
      "LBSEQ": 132.0,
      "LBNRIND": "NORMAL",
      "LBSTRESN": 273.608
    },
    {
      "STUDYID": "CDISCPILOT01",
      "SUBJID": "1015",
      "USUBJID": "01-701-1015",
      "TRTP": "Placebo",
      "TRTPN": 5.397605346934028e-79,
      "TRTA": "Placebo",
      "TRTAN": 5.397605346934028e-79,
      "TRTSDT": 19725.0,
      "TRTEDT": 19906.0,
      "AGE": 63.0,
      "AGEGR1": "<65",
      "AGEGR1N": 1.0,
      "RACE": "WHITE",
      "RACEN": 1.0,
      "SEX": "F",
      "COMP24FL": "Y",
      "DSRAEFL": "",
      "SAFFL": "Y",
      "AVISIT": "Week 6",
      "AVISITN": 6.0,
      "ADY": 42.0,
      "ADT": 19766.0,
      "VISIT": "WEEK 6",
      "VISITNUM": 7.0,
      "PARAM": "Phosphate (mmol/L) change from previous visit, relative to normal range",
      "PARAMCD": "_PHOS",
      "PARAMN": 129.0,
      "PARCAT1": "CHEM",
      "AVAL": 0.2,
      "BASE": null,
      "CHG": null,
      "A1LO": null,
      "A1HI": null,
      "R2A1LO": null,
      "R2A1HI": null,
      "BR2A1LO": null,
      "BR2A1HI": null,
      "ANL01FL": "",
      "ALBTRVAL": 1.2479799999999996,
      "ANRIND": "N",
      "BNRIND": "",
      "ABLFL": "",
      "AENTMTFL": "",
      "LBSEQ": 128.0,
      "LBNRIND": "NORMAL",
      "LBSTRESN": 1.22702
    },
    {
      "STUDYID": "CDISCPILOT01",
      "SUBJID": "1015",
      "USUBJID": "01-701-1015",
      "TRTP": "Placebo",
      "TRTPN": 5.397605346934028e-79,
      "TRTA": "Placebo",
      "TRTAN": 5.397605346934028e-79,
      "TRTSDT": 19725.0,
      "TRTEDT": 19906.0,
      "AGE": 63.0,
      "AGEGR1": "<65",
      "AGEGR1N": 1.0,
      "RACE": "WHITE",
      "RACEN": 1.0,
      "SEX": "F",
      "COMP24FL": "Y",
      "DSRAEFL": "",
      "SAFFL": "Y",
      "AVISIT": "Week 6",
      "AVISITN": 6.0,
      "ADY": 42.0,
      "ADT": 19766.0,
      "VISIT": "WEEK 6",
      "VISITNUM": 7.0,
      "PARAM": "Calcium (mmol/L) change from previous visit, relative to normal range",
      "PARAMCD": "_CA",
      "PARAMN": 130.0,
      "PARCAT1": "CHEM",
      "AVAL": 0.1,
      "BASE": null,
      "CHG": null,
      "A1LO": null,
      "A1HI": null,
      "R2A1LO": null,
      "R2A1HI": null,
      "BR2A1LO": null,
      "BR2A1HI": null,
      "ANL01FL": "",
      "ALBTRVAL": 1.5595999999999997,
      "ANRIND": "N",
      "BNRIND": "",
      "ABLFL": "",
      "AENTMTFL": "",
      "LBSEQ": 111.0,
      "LBNRIND": "NORMAL",
      "LBSTRESN": 2.2954
    },
    {
      "STUDYID": "CDISCPILOT01",
      "SUBJID": "1015",
      "USUBJID": "01-701-1015",
      "TRTP": "Placebo",
      "TRTPN": 5.397605346934028e-79,
      "TRTA": "Placebo",
      "TRTAN": 5.397605346934028e-79,
      "TRTSDT": 19725.0,
      "TRTEDT": 19906.0,
      "AGE": 63.0,
      "AGEGR1": "<65",
      "AGEGR1N": 1.0,
      "RACE": "WHITE",
      "RACEN": 1.0,
      "SEX": "F",
      "COMP24FL": "Y",
      "DSRAEFL": "",
      "SAFFL": "Y",
      "AVISIT": "Week 6",
      "AVISITN": 6.0,
      "ADY": 42.0,
      "ADT": 19766.0,
      "VISIT": "WEEK 6",
      "VISITNUM": 7.0,
      "PARAM": "Glucose (mmol/L) change from previous visit, relative to normal range",
      "PARAMCD": "_GLUC",
      "PARAMN": 131.0,
      "PARCAT1": "CHEM",
      "AVAL": 0.1,
      "BASE": null,
      "CHG": null,
      "A1LO": null,
      "A1HI": null,
      "R2A1LO": null,
      "R2A1HI": null,
      "BR2A1LO": null,
      "BR2A1HI": null,
      "ANL01FL": "",
      "ALBTRVAL": 15.743079999999999,
      "ANRIND": "N",
      "BNRIND": "",
      "ABLFL": "",
      "AENTMTFL": "",
      "LBSEQ": 118.0,
      "LBNRIND": "NORMAL",
      "LBSTRESN": 5.10692
    },
    {
      "STUDYID": "CDISCPILOT01",
      "SUBJID": "1015",
      "USUBJID": "01-701-1015",
      "TRTP": "Placebo",
      "TRTPN": 5.397605346934028e-79,
      "TRTA": "Placebo",
      "TRTAN": 5.397605346934028e-79,
      "TRTSDT": 19725.0,
      "TRTEDT": 19906.0,
      "AGE": 63.0,
      "AGEGR1": "<65",
      "AGEGR1N": 1.0,
      "RACE": "WHITE",
      "RACEN": 1.0,
      "SEX": "F",
      "COMP24FL": "Y",
      "DSRAEFL": "",
      "SAFFL": "Y",
      "AVISIT": "Week 6",
      "AVISITN": 6.0,
      "ADY": 42.0,
      "ADT": 19766.0,
      "VISIT": "WEEK 6",
      "VISITNUM": 7.0,
      "PARAM": "Protein (g/L) change from previous visit, relative to normal range",
      "PARAMCD": "_PROT",
      "PARAMN": 132.0,
      "PARCAT1": "CHEM",
      "AVAL": -0.1,
      "BASE": null,
      "CHG": null,
      "A1LO": null,
      "A1HI": null,
      "R2A1LO": null,
      "R2A1HI": null,
      "BR2A1LO": null,
      "BR2A1HI": null,
      "ANL01FL": "",
      "ALBTRVAL": 52.0,
      "ANRIND": "N",
      "BNRIND": "",
      "ABLFL": "",
      "AENTMTFL": "",
      "LBSEQ": 130.0,
      "LBNRIND": "NORMAL",
      "LBSTRESN": 68.0
    },
    {
      "STUDYID": "CDISCPILOT01",
      "SUBJID": "1015",
      "USUBJID": "01-701-1015",
      "TRTP": "Placebo",
      "TRTPN": 5.397605346934028e-79,
      "TRTA": "Placebo",
      "TRTAN": 5.397605346934028e-79,
      "TRTSDT": 19725.0,
      "TRTEDT": 19906.0,
      "AGE": 63.0,
      "AGEGR1": "<65",
      "AGEGR1N": 1.0,
      "RACE": "WHITE",
      "RACEN": 1.0,
      "SEX": "F",
      "COMP24FL": "Y",
      "DSRAEFL": "",
      "SAFFL": "Y",
      "AVISIT": "Week 6",
      "AVISITN": 6.0,
      "ADY": 42.0,
      "ADT": 19766.0,
      "VISIT": "WEEK 6",
      "VISITNUM": 7.0,
      "PARAM": "Albumin (g/L) change from previous visit, relative to normal range",
      "PARAMCD": "_ALB",
      "PARAMN": 133.0,
      "PARCAT1": "CHEM",
      "AVAL": -0.1,
      "BASE": null,
      "CHG": null,
      "A1LO": null,
      "A1HI": null,
      "R2A1LO": null,
      "R2A1HI": null,
      "BR2A1LO": null,
      "BR2A1HI": null,
      "ANL01FL": "",
      "ALBTRVAL": 36.5,
      "ANRIND": "N",
      "BNRIND": "",
      "ABLFL": "",
      "AENTMTFL": "",
      "LBSEQ": 104.0,
      "LBNRIND": "NORMAL",
      "LBSTRESN": 37.0
    },
    {
      "STUDYID": "CDISCPILOT01",
      "SUBJID": "1015",
      "USUBJID": "01-701-1015",
      "TRTP": "Placebo",
      "TRTPN": 5.397605346934028e-79,
      "TRTA": "Placebo",
      "TRTAN": 5.397605346934028e-79,
      "TRTSDT": 19725.0,
      "TRTEDT": 19906.0,
      "AGE": 63.0,
      "AGEGR1": "<65",
      "AGEGR1N": 1.0,
      "RACE": "WHITE",
      "RACEN": 1.0,
      "SEX": "F",
      "COMP24FL": "Y",
      "DSRAEFL": "",
      "SAFFL": "Y",
      "AVISIT": "Week 6",
      "AVISITN": 6.0,
      "ADY": 42.0,
      "ADT": 19766.0,
      "VISIT": "WEEK 6",
      "VISITNUM": 7.0,
      "PARAM": "Cholesterol (mmol/L) change from previous visit, relative to normal range",
      "PARAMCD": "_CHOL",
      "PARAMN": 134.0,
      "PARCAT1": "CHEM",
      "AVAL": 0.3,
      "BASE": null,
      "CHG": null,
      "A1LO": null,
      "A1HI": null,
      "R2A1LO": null,
      "R2A1HI": null,
      "BR2A1LO": null,
      "BR2A1HI": null,
      "ANL01FL": "",
      "ALBTRVAL": 6.0025200000000005,
      "ANRIND": "N",
      "BNRIND": "",
      "ABLFL": "",
      "AENTMTFL": "",
      "LBSEQ": 112.0,
      "LBNRIND": "NORMAL",
      "LBSTRESN": 5.63748
    },
    {
      "STUDYID": "CDISCPILOT01",
      "SUBJID": "1015",
      "USUBJID": "01-701-1015",
      "TRTP": "Placebo",
      "TRTPN": 5.397605346934028e-79,
      "TRTA": "Placebo",
      "TRTAN": 5.397605346934028e-79,
      "TRTSDT": 19725.0,
      "TRTEDT": 19906.0,
      "AGE": 63.0,
      "AGEGR1": "<65",
      "AGEGR1N": 1.0,
      "RACE": "WHITE",
      "RACEN": 1.0,
      "SEX": "F",
      "COMP24FL": "Y",
      "DSRAEFL": "",
      "SAFFL": "Y",
      "AVISIT": "Week 6",
      "AVISITN": 6.0,
      "ADY": 42.0,
      "ADT": 19766.0,
      "VISIT": "WEEK 6",
      "VISITNUM": 7.0,
      "PARAM": "Creatine Kinase (U/L) change from previous visit, relative to normal range",
      "PARAMCD": "_CK",
      "PARAMN": 135.0,
      "PARCAT1": "CHEM",
      "AVAL": 0.3,
      "BASE": null,
      "CHG": null,
      "A1LO": null,
      "A1HI": null,
      "R2A1LO": null,
      "R2A1HI": null,
      "BR2A1LO": null,
      "BR2A1HI": null,
      "ANL01FL": "Y",
      "ALBTRVAL": 189.5,
      "ANRIND": "N",
      "BNRIND": "",
      "ABLFL": "",
      "AENTMTFL": "",
      "LBSEQ": 113.0,
      "LBNRIND": "NORMAL",
      "LBSTRESN": 64.0
    },
    {
      "STUDYID": "CDISCPILOT01",
      "SUBJID": "1015",
      "USUBJID": "01-701-1015",
      "TRTP": "Placebo",
      "TRTPN": 5.397605346934028e-79,
      "TRTA": "Placebo",
      "TRTAN": 5.397605346934028e-79,
      "TRTSDT": 19725.0,
      "TRTEDT": 19906.0,
      "AGE": 63.0,
      "AGEGR1": "<65",
      "AGEGR1N": 1.0,
      "RACE": "WHITE",
      "RACEN": 1.0,
      "SEX": "F",
      "COMP24FL": "Y",
      "DSRAEFL": "",
      "SAFFL": "Y",
      "AVISIT": "Week 8",
      "AVISITN": 8.0,
      "ADY": 63.0,
      "ADT": 19787.0,
      "VISIT": "WEEK 8",
      "VISITNUM": 8.0,
      "PARAM": "Sodium (mmol/L) change from previous visit, relative to normal range",
      "PARAMCD": "_SODIUM",
      "PARAMN": 118.0,
      "PARCAT1": "CHEM",
      "AVAL": 0.2,
      "BASE": null,
      "CHG": null,
      "A1LO": null,
      "A1HI": null,
      "R2A1LO": null,
      "R2A1HI": null,
      "BR2A1LO": null,
      "BR2A1HI": null,
      "ANL01FL": "",
      "ALBTRVAL": 76.5,
      "ANRIND": "N",
      "BNRIND": "",
      "ABLFL": "",
      "AENTMTFL": "",
      "LBSEQ": 157.0,
      "LBNRIND": "NORMAL",
      "LBSTRESN": 141.0
    },
    {
      "STUDYID": "CDISCPILOT01",
      "SUBJID": "1015",
      "USUBJID": "01-701-1015",
      "TRTP": "Placebo",
      "TRTPN": 5.397605346934028e-79,
      "TRTA": "Placebo",
      "TRTAN": 5.397605346934028e-79,
      "TRTSDT": 19725.0,
      "TRTEDT": 19906.0,
      "AGE": 63.0,
      "AGEGR1": "<65",
      "AGEGR1N": 1.0,
      "RACE": "WHITE",
      "RACEN": 1.0,
      "SEX": "F",
      "COMP24FL": "Y",
      "DSRAEFL": "",
      "SAFFL": "Y",
      "AVISIT": "Week 8",
      "AVISITN": 8.0,
      "ADY": 63.0,
      "ADT": 19787.0,
      "VISIT": "WEEK 8",
      "VISITNUM": 8.0,
      "PARAM": "Potassium (mmol/L) change from previous visit, relative to normal range",
      "PARAMCD": "_K",
      "PARAMN": 119.0,
      "PARCAT1": "CHEM",
      "AVAL": -0.5,
      "BASE": null,
      "CHG": null,
      "A1LO": null,
      "A1HI": null,
      "R2A1LO": null,
      "R2A1HI": null,
      "BR2A1LO": null,
      "BR2A1HI": null,
      "ANL01FL": "Y",
      "ALBTRVAL": 4.0,
      "ANRIND": "N",
      "BNRIND": "",
      "ABLFL": "",
      "AENTMTFL": "",
      "LBSEQ": 151.0,
      "LBNRIND": "NORMAL",
      "LBSTRESN": 4.1
    },
    {
      "STUDYID": "CDISCPILOT01",
      "SUBJID": "1015",
      "USUBJID": "01-701-1015",
      "TRTP": "Placebo",
      "TRTPN": 5.397605346934028e-79,
      "TRTA": "Placebo",
      "TRTAN": 5.397605346934028e-79,
      "TRTSDT": 19725.0,
      "TRTEDT": 19906.0,
      "AGE": 63.0,
      "AGEGR1": "<65",
      "AGEGR1N": 1.0,
      "RACE": "WHITE",
      "RACEN": 1.0,
      "SEX": "F",
      "COMP24FL": "Y",
      "DSRAEFL": "",
      "SAFFL": "Y",
      "AVISIT": "Week 8",
      "AVISITN": 8.0,
      "ADY": 63.0,
      "ADT": 19787.0,
      "VISIT": "WEEK 8",
      "VISITNUM": 8.0,
      "PARAM": "Chloride (mmol/L) change from previous visit, relative to normal range",
      "PARAMCD": "_CL",
      "PARAMN": 120.0,
      "PARCAT1": "CHEM",
      "AVAL": 5.397605346934028e-79,
      "BASE": null,
      "CHG": null,
      "A1LO": null,
      "A1HI": null,
      "R2A1LO": null,
      "R2A1HI": null,
      "BR2A1LO": null,
      "BR2A1HI": null,
      "ANL01FL": "",
      "ALBTRVAL": 63.0,
      "ANRIND": "N",
      "BNRIND": "",
      "ABLFL": "",
      "AENTMTFL": "",
      "LBSEQ": 144.0,
      "LBNRIND": "NORMAL",
      "LBSTRESN": 105.0
    },
    {
      "STUDYID": "CDISCPILOT01",
      "SUBJID": "1015",
      "USUBJID": "01-701-1015",
      "TRTP": "Placebo",
      "TRTPN": 5.397605346934028e-79,
      "TRTA": "Placebo",
      "TRTAN": 5.397605346934028e-79,
      "TRTSDT": 19725.0,
      "TRTEDT": 19906.0,
      "AGE": 63.0,
      "AGEGR1": "<65",
      "AGEGR1N": 1.0,
      "RACE": "WHITE",
      "RACEN": 1.0,
      "SEX": "F",
      "COMP24FL": "Y",
      "DSRAEFL": "",
      "SAFFL": "Y",
      "AVISIT": "Week 8",
      "AVISITN": 8.0,
      "ADY": 63.0,
      "ADT": 19787.0,
      "VISIT": "WEEK 8",
      "VISITNUM": 8.0,
      "PARAM": "Bilirubin (umol/L) change from previous visit, relative to normal range",
      "PARAMCD": "_BILI",
      "PARAMN": 121.0,
      "PARCAT1": "CHEM",
      "AVAL": 0.4,
      "BASE": null,
      "CHG": null,
      "A1LO": null,
      "A1HI": null,
      "R2A1LO": null,
      "R2A1HI": null,
      "BR2A1LO": null,
      "BR2A1HI": null,
      "ANL01FL": "Y",
      "ALBTRVAL": 22.950000000000003,
      "ANRIND": "N",
      "BNRIND": "",
      "ABLFL": "",
      "AENTMTFL": "",
      "LBSEQ": 139.0,
      "LBNRIND": "NORMAL",
      "LBSTRESN": 8.549999999999999
    },
    {
      "STUDYID": "CDISCPILOT01",
      "SUBJID": "1015",
      "USUBJID": "01-701-1015",
      "TRTP": "Placebo",
      "TRTPN": 5.397605346934028e-79,
      "TRTA": "Placebo",
      "TRTAN": 5.397605346934028e-79,
      "TRTSDT": 19725.0,
      "TRTEDT": 19906.0,
      "AGE": 63.0,
      "AGEGR1": "<65",
      "AGEGR1N": 1.0,
      "RACE": "WHITE",
      "RACEN": 1.0,
      "SEX": "F",
      "COMP24FL": "Y",
      "DSRAEFL": "",
      "SAFFL": "Y",
      "AVISIT": "Week 8",
      "AVISITN": 8.0,
      "ADY": 63.0,
      "ADT": 19787.0,
      "VISIT": "WEEK 8",
      "VISITNUM": 8.0,
      "PARAM": "Alkaline Phosphatase (U/L) change from previous visit, relative to normal range",
      "PARAMCD": "_ALP",
      "PARAMN": 122.0,
      "PARCAT1": "CHEM",
      "AVAL": 0.1,
      "BASE": null,
      "CHG": null,
      "A1LO": null,
      "A1HI": null,
      "R2A1LO": null,
      "R2A1HI": null,
      "BR2A1LO": null,
      "BR2A1HI": null,
      "ANL01FL": "",
      "ALBTRVAL": 125.5,
      "ANRIND": "N",
      "BNRIND": "",
      "ABLFL": "",
      "AENTMTFL": "",
      "LBSEQ": 135.0,
      "LBNRIND": "NORMAL",
      "LBSTRESN": 47.0
    },
    {
      "STUDYID": "CDISCPILOT01",
      "SUBJID": "1015",
      "USUBJID": "01-701-1015",
      "TRTP": "Placebo",
      "TRTPN": 5.397605346934028e-79,
      "TRTA": "Placebo",
      "TRTAN": 5.397605346934028e-79,
      "TRTSDT": 19725.0,
      "TRTEDT": 19906.0,
      "AGE": 63.0,
      "AGEGR1": "<65",
      "AGEGR1N": 1.0,
      "RACE": "WHITE",
      "RACEN": 1.0,
      "SEX": "F",
      "COMP24FL": "Y",
      "DSRAEFL": "",
      "SAFFL": "Y",
      "AVISIT": "Week 8",
      "AVISITN": 8.0,
      "ADY": 63.0,
      "ADT": 19787.0,
      "VISIT": "WEEK 8",
      "VISITNUM": 8.0,
      "PARAM": "Gamma Glutamyl Transferase (U/L) change from previous visit, relative to normal range",
      "PARAMCD": "_GGT",
      "PARAMN": 123.0,
      "PARCAT1": "CHEM",
      "AVAL": 5.397605346934028e-79,
      "BASE": null,
      "CHG": null,
      "A1LO": null,
      "A1HI": null,
      "R2A1LO": null,
      "R2A1HI": null,
      "BR2A1LO": null,
      "BR2A1HI": null,
      "ANL01FL": "",
      "ALBTRVAL": 61.0,
      "ANRIND": "N",
      "BNRIND": "",
      "ABLFL": "",
      "AENTMTFL": "",
      "LBSEQ": 147.0,
      "LBNRIND": "NORMAL",
      "LBSTRESN": 14.0
    },
    {
      "STUDYID": "CDISCPILOT01",
      "SUBJID": "1015",
      "USUBJID": "01-701-1015",
      "TRTP": "Placebo",
      "TRTPN": 5.397605346934028e-79,
      "TRTA": "Placebo",
      "TRTAN": 5.397605346934028e-79,
      "TRTSDT": 19725.0,
      "TRTEDT": 19906.0,
      "AGE": 63.0,
      "AGEGR1": "<65",
      "AGEGR1N": 1.0,
      "RACE": "WHITE",
      "RACEN": 1.0,
      "SEX": "F",
      "COMP24FL": "Y",
      "DSRAEFL": "",
      "SAFFL": "Y",
      "AVISIT": "Week 8",
      "AVISITN": 8.0,
      "ADY": 63.0,
      "ADT": 19787.0,
      "VISIT": "WEEK 8",
      "VISITNUM": 8.0,
      "PARAM": "Alanine Aminotransferase (U/L) change from previous visit, relative to normal range",
      "PARAMCD": "_ALT",
      "PARAMN": 124.0,
      "PARCAT1": "CHEM",
      "AVAL": -0.3,
      "BASE": null,
      "CHG": null,
      "A1LO": null,
      "A1HI": null,
      "R2A1LO": null,
      "R2A1HI": null,
      "BR2A1LO": null,
      "BR2A1HI": null,
      "ANL01FL": "",
      "ALBTRVAL": 29.0,
      "ANRIND": "N",
      "BNRIND": "",
      "ABLFL": "",
      "AENTMTFL": "",
      "LBSEQ": 136.0,
      "LBNRIND": "NORMAL",
      "LBSTRESN": 22.0
    },
    {
      "STUDYID": "CDISCPILOT01",
      "SUBJID": "1015",
      "USUBJID": "01-701-1015",
      "TRTP": "Placebo",
      "TRTPN": 5.397605346934028e-79,
      "TRTA": "Placebo",
      "TRTAN": 5.397605346934028e-79,
      "TRTSDT": 19725.0,
      "TRTEDT": 19906.0,
      "AGE": 63.0,
      "AGEGR1": "<65",
      "AGEGR1N": 1.0,
      "RACE": "WHITE",
      "RACEN": 1.0,
      "SEX": "F",
      "COMP24FL": "Y",
      "DSRAEFL": "",
      "SAFFL": "Y",
      "AVISIT": "Week 8",
      "AVISITN": 8.0,
      "ADY": 63.0,
      "ADT": 19787.0,
      "VISIT": "WEEK 8",
      "VISITNUM": 8.0,
      "PARAM": "Aspartate Aminotransferase (U/L) change from previous visit, relative to normal range",
      "PARAMCD": "_AST",
      "PARAMN": 125.0,
      "PARCAT1": "CHEM",
      "AVAL": -0.4,
      "BASE": null,
      "CHG": null,
      "A1LO": null,
      "A1HI": null,
      "R2A1LO": null,
      "R2A1HI": null,
      "BR2A1LO": null,
      "BR2A1HI": null,
      "ANL01FL": "",
      "ALBTRVAL": 30.0,
      "ANRIND": "N",
      "BNRIND": "",
      "ABLFL": "",
      "AENTMTFL": "",
      "LBSEQ": 137.0,
      "LBNRIND": "NORMAL",
      "LBSTRESN": 21.0
    },
    {
      "STUDYID": "CDISCPILOT01",
      "SUBJID": "1015",
      "USUBJID": "01-701-1015",
      "TRTP": "Placebo",
      "TRTPN": 5.397605346934028e-79,
      "TRTA": "Placebo",
      "TRTAN": 5.397605346934028e-79,
      "TRTSDT": 19725.0,
      "TRTEDT": 19906.0,
      "AGE": 63.0,
      "AGEGR1": "<65",
      "AGEGR1N": 1.0,
      "RACE": "WHITE",
      "RACEN": 1.0,
      "SEX": "F",
      "COMP24FL": "Y",
      "DSRAEFL": "",
      "SAFFL": "Y",
      "AVISIT": "Week 8",
      "AVISITN": 8.0,
      "ADY": 63.0,
      "ADT": 19787.0,
      "VISIT": "WEEK 8",
      "VISITNUM": 8.0,
      "PARAM": "Blood Urea Nitrogen (mmol/L) change from previous visit, relative to normal range",
      "PARAMCD": "_BUN",
      "PARAMN": 126.0,
      "PARCAT1": "CHEM",
      "AVAL": -0.1,
      "BASE": null,
      "CHG": null,
      "A1LO": null,
      "A1HI": null,
      "R2A1LO": null,
      "R2A1HI": null,
      "BR2A1LO": null,
      "BR2A1HI": null,
      "ANL01FL": "",
      "ALBTRVAL": 8.972999999999999,
      "ANRIND": "N",
      "BNRIND": "",
      "ABLFL": "",
      "AENTMTFL": "",
      "LBSEQ": 140.0,
      "LBNRIND": "NORMAL",
      "LBSTRESN": 3.927
    },
    {
      "STUDYID": "CDISCPILOT01",
      "SUBJID": "1015",
      "USUBJID": "01-701-1015",
      "TRTP": "Placebo",
      "TRTPN": 5.397605346934028e-79,
      "TRTA": "Placebo",
      "TRTAN": 5.397605346934028e-79,
      "TRTSDT": 19725.0,
      "TRTEDT": 19906.0,
      "AGE": 63.0,
      "AGEGR1": "<65",
      "AGEGR1N": 1.0,
      "RACE": "WHITE",
      "RACEN": 1.0,
      "SEX": "F",
      "COMP24FL": "Y",
      "DSRAEFL": "",
      "SAFFL": "Y",
      "AVISIT": "Week 8",
      "AVISITN": 8.0,
      "ADY": 63.0,
      "ADT": 19787.0,
      "VISIT": "WEEK 8",
      "VISITNUM": 8.0,
      "PARAM": "Creatinine (umol/L) change from previous visit, relative to normal range",
      "PARAMCD": "_CREAT",
      "PARAMN": 127.0,
      "PARCAT1": "CHEM",
      "AVAL": 5.397605346934028e-79,
      "BASE": null,
      "CHG": null,
      "A1LO": null,
      "A1HI": null,
      "R2A1LO": null,
      "R2A1HI": null,
      "BR2A1LO": null,
      "BR2A1HI": null,
      "ANL01FL": "",
      "ALBTRVAL": 97.60000000000001,
      "ANRIND": "N",
      "BNRIND": "",
      "ABLFL": "",
      "AENTMTFL": "",
      "LBSEQ": 145.0,
      "LBNRIND": "NORMAL",
      "LBSTRESN": 88.39999999999999
    },
    {
      "STUDYID": "CDISCPILOT01",
      "SUBJID": "1015",
      "USUBJID": "01-701-1015",
      "TRTP": "Placebo",
      "TRTPN": 5.397605346934028e-79,
      "TRTA": "Placebo",
      "TRTAN": 5.397605346934028e-79,
      "TRTSDT": 19725.0,
      "TRTEDT": 19906.0,
      "AGE": 63.0,
      "AGEGR1": "<65",
      "AGEGR1N": 1.0,
      "RACE": "WHITE",
      "RACEN": 1.0,
      "SEX": "F",
      "COMP24FL": "Y",
      "DSRAEFL": "",
      "SAFFL": "Y",
      "AVISIT": "Week 8",
      "AVISITN": 8.0,
      "ADY": 63.0,
      "ADT": 19787.0,
      "VISIT": "WEEK 8",
      "VISITNUM": 8.0,
      "PARAM": "Urate (umol/L) change from previous visit, relative to normal range",
      "PARAMCD": "_URATE",
      "PARAMN": 128.0,
      "PARCAT1": "CHEM",
      "AVAL": 5.397605346934028e-79,
      "BASE": null,
      "CHG": null,
      "A1LO": null,
      "A1HI": null,
      "R2A1LO": null,
      "R2A1HI": null,
      "BR2A1LO": null,
      "BR2A1HI": null,
      "ANL01FL": "",
      "ALBTRVAL": 395.392,
      "ANRIND": "N",
      "BNRIND": "",
      "ABLFL": "",
      "AENTMTFL": "",
      "LBSEQ": 162.0,
      "LBNRIND": "NORMAL",
      "LBSTRESN": 273.608
    },
    {
      "STUDYID": "CDISCPILOT01",
      "SUBJID": "1015",
      "USUBJID": "01-701-1015",
      "TRTP": "Placebo",
      "TRTPN": 5.397605346934028e-79,
      "TRTA": "Placebo",
      "TRTAN": 5.397605346934028e-79,
      "TRTSDT": 19725.0,
      "TRTEDT": 19906.0,
      "AGE": 63.0,
      "AGEGR1": "<65",
      "AGEGR1N": 1.0,
      "RACE": "WHITE",
      "RACEN": 1.0,
      "SEX": "F",
      "COMP24FL": "Y",
      "DSRAEFL": "",
      "SAFFL": "Y",
      "AVISIT": "Week 8",
      "AVISITN": 8.0,
      "ADY": 63.0,
      "ADT": 19787.0,
      "VISIT": "WEEK 8",
      "VISITNUM": 8.0,
      "PARAM": "Phosphate (mmol/L) change from previous visit, relative to normal range",
      "PARAMCD": "_PHOS",
      "PARAMN": 129.0,
      "PARCAT1": "CHEM",
      "AVAL": -0.1,
      "BASE": null,
      "CHG": null,
      "A1LO": null,
      "A1HI": null,
      "R2A1LO": null,
      "R2A1HI": null,
      "BR2A1LO": null,
      "BR2A1HI": null,
      "ANL01FL": "",
      "ALBTRVAL": 1.3125599999999997,
      "ANRIND": "N",
      "BNRIND": "",
      "ABLFL": "",
      "AENTMTFL": "",
      "LBSEQ": 158.0,
      "LBNRIND": "NORMAL",
      "LBSTRESN": 1.16244
    },
    {
      "STUDYID": "CDISCPILOT01",
      "SUBJID": "1015",
      "USUBJID": "01-701-1015",
      "TRTP": "Placebo",
      "TRTPN": 5.397605346934028e-79,
      "TRTA": "Placebo",
      "TRTAN": 5.397605346934028e-79,
      "TRTSDT": 19725.0,
      "TRTEDT": 19906.0,
      "AGE": 63.0,
      "AGEGR1": "<65",
      "AGEGR1N": 1.0,
      "RACE": "WHITE",
      "RACEN": 1.0,
      "SEX": "F",
      "COMP24FL": "Y",
      "DSRAEFL": "",
      "SAFFL": "Y",
      "AVISIT": "Week 8",
      "AVISITN": 8.0,
      "ADY": 63.0,
      "ADT": 19787.0,
      "VISIT": "WEEK 8",
      "VISITNUM": 8.0,
      "PARAM": "Calcium (mmol/L) change from previous visit, relative to normal range",
      "PARAMCD": "_CA",
      "PARAMN": 130.0,
      "PARCAT1": "CHEM",
      "AVAL": -0.3,
      "BASE": null,
      "CHG": null,
      "A1LO": null,
      "A1HI": null,
      "R2A1LO": null,
      "R2A1HI": null,
      "BR2A1LO": null,
      "BR2A1HI": null,
      "ANL01FL": "",
      "ALBTRVAL": 1.6344499999999997,
      "ANRIND": "N",
      "BNRIND": "",
      "ABLFL": "",
      "AENTMTFL": "",
      "LBSEQ": 141.0,
      "LBNRIND": "NORMAL",
      "LBSTRESN": 2.22055
    },
    {
      "STUDYID": "CDISCPILOT01",
      "SUBJID": "1015",
      "USUBJID": "01-701-1015",
      "TRTP": "Placebo",
      "TRTPN": 5.397605346934028e-79,
      "TRTA": "Placebo",
      "TRTAN": 5.397605346934028e-79,
      "TRTSDT": 19725.0,
      "TRTEDT": 19906.0,
      "AGE": 63.0,
      "AGEGR1": "<65",
      "AGEGR1N": 1.0,
      "RACE": "WHITE",
      "RACEN": 1.0,
      "SEX": "F",
      "COMP24FL": "Y",
      "DSRAEFL": "",
      "SAFFL": "Y",
      "AVISIT": "Week 8",
      "AVISITN": 8.0,
      "ADY": 63.0,
      "ADT": 19787.0,
      "VISIT": "WEEK 8",
      "VISITNUM": 8.0,
      "PARAM": "Glucose (mmol/L) change from previous visit, relative to normal range",
      "PARAMCD": "_GLUC",
      "PARAMN": 131.0,
      "PARCAT1": "CHEM",
      "AVAL": -0.1,
      "BASE": null,
      "CHG": null,
      "A1LO": null,
      "A1HI": null,
      "R2A1LO": null,
      "R2A1HI": null,
      "BR2A1LO": null,
      "BR2A1HI": null,
      "ANL01FL": "",
      "ALBTRVAL": 16.29818,
      "ANRIND": "N",
      "BNRIND": "",
      "ABLFL": "",
      "AENTMTFL": "",
      "LBSEQ": 148.0,
      "LBNRIND": "NORMAL",
      "LBSTRESN": 4.551819999999999
    },
    {
      "STUDYID": "CDISCPILOT01",
      "SUBJID": "1015",
      "USUBJID": "01-701-1015",
      "TRTP": "Placebo",
      "TRTPN": 5.397605346934028e-79,
      "TRTA": "Placebo",
      "TRTAN": 5.397605346934028e-79,
      "TRTSDT": 19725.0,
      "TRTEDT": 19906.0,
      "AGE": 63.0,
      "AGEGR1": "<65",
      "AGEGR1N": 1.0,
      "RACE": "WHITE",
      "RACEN": 1.0,
      "SEX": "F",
      "COMP24FL": "Y",
      "DSRAEFL": "",
      "SAFFL": "Y",
      "AVISIT": "Week 8",
      "AVISITN": 8.0,
      "ADY": 63.0,
      "ADT": 19787.0,
      "VISIT": "WEEK 8",
      "VISITNUM": 8.0,
      "PARAM": "Protein (g/L) change from previous visit, relative to normal range",
      "PARAMCD": "_PROT",
      "PARAMN": 132.0,
      "PARCAT1": "CHEM",
      "AVAL": 0.1,
      "BASE": null,
      "CHG": null,
      "A1LO": null,
      "A1HI": null,
      "R2A1LO": null,
      "R2A1HI": null,
      "BR2A1LO": null,
      "BR2A1HI": null,
      "ANL01FL": "",
      "ALBTRVAL": 51.0,
      "ANRIND": "N",
      "BNRIND": "",
      "ABLFL": "",
      "AENTMTFL": "",
      "LBSEQ": 160.0,
      "LBNRIND": "NORMAL",
      "LBSTRESN": 69.0
    },
    {
      "STUDYID": "CDISCPILOT01",
      "SUBJID": "1015",
      "USUBJID": "01-701-1015",
      "TRTP": "Placebo",
      "TRTPN": 5.397605346934028e-79,
      "TRTA": "Placebo",
      "TRTAN": 5.397605346934028e-79,
      "TRTSDT": 19725.0,
      "TRTEDT": 19906.0,
      "AGE": 63.0,
      "AGEGR1": "<65",
      "AGEGR1N": 1.0,
      "RACE": "WHITE",
      "RACEN": 1.0,
      "SEX": "F",
      "COMP24FL": "Y",
      "DSRAEFL": "",
      "SAFFL": "Y",
      "AVISIT": "Week 8",
      "AVISITN": 8.0,
      "ADY": 63.0,
      "ADT": 19787.0,
      "VISIT": "WEEK 8",
      "VISITNUM": 8.0,
      "PARAM": "Albumin (g/L) change from previous visit, relative to normal range",
      "PARAMCD": "_ALB",
      "PARAMN": 133.0,
      "PARCAT1": "CHEM",
      "AVAL": 0.1,
      "BASE": null,
      "CHG": null,
      "A1LO": null,
      "A1HI": null,
      "R2A1LO": null,
      "R2A1HI": null,
      "BR2A1LO": null,
      "BR2A1HI": null,
      "ANL01FL": "",
      "ALBTRVAL": 35.5,
      "ANRIND": "N",
      "BNRIND": "",
      "ABLFL": "",
      "AENTMTFL": "",
      "LBSEQ": 134.0,
      "LBNRIND": "NORMAL",
      "LBSTRESN": 38.0
    },
    {
      "STUDYID": "CDISCPILOT01",
      "SUBJID": "1015",
      "USUBJID": "01-701-1015",
      "TRTP": "Placebo",
      "TRTPN": 5.397605346934028e-79,
      "TRTA": "Placebo",
      "TRTAN": 5.397605346934028e-79,
      "TRTSDT": 19725.0,
      "TRTEDT": 19906.0,
      "AGE": 63.0,
      "AGEGR1": "<65",
      "AGEGR1N": 1.0,
      "RACE": "WHITE",
      "RACEN": 1.0,
      "SEX": "F",
      "COMP24FL": "Y",
      "DSRAEFL": "",
      "SAFFL": "Y",
      "AVISIT": "Week 8",
      "AVISITN": 8.0,
      "ADY": 63.0,
      "ADT": 19787.0,
      "VISIT": "WEEK 8",
      "VISITNUM": 8.0,
      "PARAM": "Cholesterol (mmol/L) change from previous visit, relative to normal range",
      "PARAMCD": "_CHOL",
      "PARAMN": 134.0,
      "PARCAT1": "CHEM",
      "AVAL": -0.1,
      "BASE": null,
      "CHG": null,
      "A1LO": null,
      "A1HI": null,
      "R2A1LO": null,
      "R2A1HI": null,
      "BR2A1LO": null,
      "BR2A1HI": null,
      "ANL01FL": "",
      "ALBTRVAL": 6.1059600000000005,
      "ANRIND": "N",
      "BNRIND": "",
      "ABLFL": "",
      "AENTMTFL": "",
      "LBSEQ": 142.0,
      "LBNRIND": "NORMAL",
      "LBSTRESN": 5.53404
    },
    {
      "STUDYID": "CDISCPILOT01",
      "SUBJID": "1015",
      "USUBJID": "01-701-1015",
      "TRTP": "Placebo",
      "TRTPN": 5.397605346934028e-79,
      "TRTA": "Placebo",
      "TRTAN": 5.397605346934028e-79,
      "TRTSDT": 19725.0,
      "TRTEDT": 19906.0,
      "AGE": 63.0,
      "AGEGR1": "<65",
      "AGEGR1N": 1.0,
      "RACE": "WHITE",
      "RACEN": 1.0,
      "SEX": "F",
      "COMP24FL": "Y",
      "DSRAEFL": "",
      "SAFFL": "Y",
      "AVISIT": "Week 8",
      "AVISITN": 8.0,
      "ADY": 63.0,
      "ADT": 19787.0,
      "VISIT": "WEEK 8",
      "VISITNUM": 8.0,
      "PARAM": "Creatine Kinase (U/L) change from previous visit, relative to normal range",
      "PARAMCD": "_CK",
      "PARAMN": 135.0,
      "PARCAT1": "CHEM",
      "AVAL": -0.2,
      "BASE": null,
      "CHG": null,
      "A1LO": null,
      "A1HI": null,
      "R2A1LO": null,
      "R2A1HI": null,
      "BR2A1LO": null,
      "BR2A1HI": null,
      "ANL01FL": "",
      "ALBTRVAL": 204.5,
      "ANRIND": "N",
      "BNRIND": "",
      "ABLFL": "",
      "AENTMTFL": "",
      "LBSEQ": 143.0,
      "LBNRIND": "NORMAL",
      "LBSTRESN": 49.0
    },
    {
      "STUDYID": "CDISCPILOT01",
      "SUBJID": "1015",
      "USUBJID": "01-701-1015",
      "TRTP": "Placebo",
      "TRTPN": 5.397605346934028e-79,
      "TRTA": "Placebo",
      "TRTAN": 5.397605346934028e-79,
      "TRTSDT": 19725.0,
      "TRTEDT": 19906.0,
      "AGE": 63.0,
      "AGEGR1": "<65",
      "AGEGR1N": 1.0,
      "RACE": "WHITE",
      "RACEN": 1.0,
      "SEX": "F",
      "COMP24FL": "Y",
      "DSRAEFL": "",
      "SAFFL": "Y",
      "AVISIT": "Week 12",
      "AVISITN": 12.0,
      "ADY": 84.0,
      "ADT": 19808.0,
      "VISIT": "WEEK 12",
      "VISITNUM": 9.0,
      "PARAM": "Sodium (mmol/L) change from previous visit, relative to normal range",
      "PARAMCD": "_SODIUM",
      "PARAMN": 118.0,
      "PARCAT1": "CHEM",
      "AVAL": -0.4,
      "BASE": null,
      "CHG": null,
      "A1LO": null,
      "A1HI": null,
      "R2A1LO": null,
      "R2A1HI": null,
      "BR2A1LO": null,
      "BR2A1HI": null,
      "ANL01FL": "",
      "ALBTRVAL": 78.5,
      "ANRIND": "N",
      "BNRIND": "",
      "ABLFL": "",
      "AENTMTFL": "",
      "LBSEQ": 189.0,
      "LBNRIND": "NORMAL",
      "LBSTRESN": 139.0
    },
    {
      "STUDYID": "CDISCPILOT01",
      "SUBJID": "1015",
      "USUBJID": "01-701-1015",
      "TRTP": "Placebo",
      "TRTPN": 5.397605346934028e-79,
      "TRTA": "Placebo",
      "TRTAN": 5.397605346934028e-79,
      "TRTSDT": 19725.0,
      "TRTEDT": 19906.0,
      "AGE": 63.0,
      "AGEGR1": "<65",
      "AGEGR1N": 1.0,
      "RACE": "WHITE",
      "RACEN": 1.0,
      "SEX": "F",
      "COMP24FL": "Y",
      "DSRAEFL": "",
      "SAFFL": "Y",
      "AVISIT": "Week 12",
      "AVISITN": 12.0,
      "ADY": 84.0,
      "ADT": 19808.0,
      "VISIT": "WEEK 12",
      "VISITNUM": 9.0,
      "PARAM": "Potassium (mmol/L) change from previous visit, relative to normal range",
      "PARAMCD": "_K",
      "PARAMN": 119.0,
      "PARCAT1": "CHEM",
      "AVAL": -0.5,
      "BASE": null,
      "CHG": null,
      "A1LO": null,
      "A1HI": null,
      "R2A1LO": null,
      "R2A1HI": null,
      "BR2A1LO": null,
      "BR2A1HI": null,
      "ANL01FL": "",
      "ALBTRVAL": 4.5,
      "ANRIND": "N",
      "BNRIND": "",
      "ABLFL": "",
      "AENTMTFL": "",
      "LBSEQ": 182.0,
      "LBNRIND": "NORMAL",
      "LBSTRESN": 3.6
    },
    {
      "STUDYID": "CDISCPILOT01",
      "SUBJID": "1015",
      "USUBJID": "01-701-1015",
      "TRTP": "Placebo",
      "TRTPN": 5.397605346934028e-79,
      "TRTA": "Placebo",
      "TRTAN": 5.397605346934028e-79,
      "TRTSDT": 19725.0,
      "TRTEDT": 19906.0,
      "AGE": 63.0,
      "AGEGR1": "<65",
      "AGEGR1N": 1.0,
      "RACE": "WHITE",
      "RACEN": 1.0,
      "SEX": "F",
      "COMP24FL": "Y",
      "DSRAEFL": "",
      "SAFFL": "Y",
      "AVISIT": "Week 12",
      "AVISITN": 12.0,
      "ADY": 84.0,
      "ADT": 19808.0,
      "VISIT": "WEEK 12",
      "VISITNUM": 9.0,
      "PARAM": "Chloride (mmol/L) change from previous visit, relative to normal range",
      "PARAMCD": "_CL",
      "PARAMN": 120.0,
      "PARCAT1": "CHEM",
      "AVAL": -0.7,
      "BASE": null,
      "CHG": null,
      "A1LO": null,
      "A1HI": null,
      "R2A1LO": null,
      "R2A1HI": null,
      "BR2A1LO": null,
      "BR2A1HI": null,
      "ANL01FL": "Y",
      "ALBTRVAL": 69.0,
      "ANRIND": "N",
      "BNRIND": "",
      "ABLFL": "",
      "AENTMTFL": "",
      "LBSEQ": 174.0,
      "LBNRIND": "NORMAL",
      "LBSTRESN": 99.0
    },
    {
      "STUDYID": "CDISCPILOT01",
      "SUBJID": "1015",
      "USUBJID": "01-701-1015",
      "TRTP": "Placebo",
      "TRTPN": 5.397605346934028e-79,
      "TRTA": "Placebo",
      "TRTAN": 5.397605346934028e-79,
      "TRTSDT": 19725.0,
      "TRTEDT": 19906.0,
      "AGE": 63.0,
      "AGEGR1": "<65",
      "AGEGR1N": 1.0,
      "RACE": "WHITE",
      "RACEN": 1.0,
      "SEX": "F",
      "COMP24FL": "Y",
      "DSRAEFL": "",
      "SAFFL": "Y",
      "AVISIT": "Week 12",
      "AVISITN": 12.0,
      "ADY": 84.0,
      "ADT": 19808.0,
      "VISIT": "WEEK 12",
      "VISITNUM": 9.0,
      "PARAM": "Bilirubin (umol/L) change from previous visit, relative to normal range",
      "PARAMCD": "_BILI",
      "PARAMN": 121.0,
      "PARCAT1": "CHEM",
      "AVAL": -0.2,
      "BASE": null,
      "CHG": null,
      "A1LO": null,
      "A1HI": null,
      "R2A1LO": null,
      "R2A1HI": null,
      "BR2A1LO": null,
      "BR2A1HI": null,
      "ANL01FL": "",
      "ALBTRVAL": 24.66,
      "ANRIND": "N",
      "BNRIND": "",
      "ABLFL": "",
      "AENTMTFL": "",
      "LBSEQ": 169.0,
      "LBNRIND": "NORMAL",
      "LBSTRESN": 6.84
    },
    {
      "STUDYID": "CDISCPILOT01",
      "SUBJID": "1015",
      "USUBJID": "01-701-1015",
      "TRTP": "Placebo",
      "TRTPN": 5.397605346934028e-79,
      "TRTA": "Placebo",
      "TRTAN": 5.397605346934028e-79,
      "TRTSDT": 19725.0,
      "TRTEDT": 19906.0,
      "AGE": 63.0,
      "AGEGR1": "<65",
      "AGEGR1N": 1.0,
      "RACE": "WHITE",
      "RACEN": 1.0,
      "SEX": "F",
      "COMP24FL": "Y",
      "DSRAEFL": "",
      "SAFFL": "Y",
      "AVISIT": "Week 12",
      "AVISITN": 12.0,
      "ADY": 84.0,
      "ADT": 19808.0,
      "VISIT": "WEEK 12",
      "VISITNUM": 9.0,
      "PARAM": "Alkaline Phosphatase (U/L) change from previous visit, relative to normal range",
      "PARAMCD": "_ALP",
      "PARAMN": 122.0,
      "PARCAT1": "CHEM",
      "AVAL": 0.2,
      "BASE": null,
      "CHG": null,
      "A1LO": null,
      "A1HI": null,
      "R2A1LO": null,
      "R2A1HI": null,
      "BR2A1LO": null,
      "BR2A1HI": null,
      "ANL01FL": "",
      "ALBTRVAL": 119.5,
      "ANRIND": "N",
      "BNRIND": "",
      "ABLFL": "",
      "AENTMTFL": "",
      "LBSEQ": 165.0,
      "LBNRIND": "NORMAL",
      "LBSTRESN": 53.0
    },
    {
      "STUDYID": "CDISCPILOT01",
      "SUBJID": "1015",
      "USUBJID": "01-701-1015",
      "TRTP": "Placebo",
      "TRTPN": 5.397605346934028e-79,
      "TRTA": "Placebo",
      "TRTAN": 5.397605346934028e-79,
      "TRTSDT": 19725.0,
      "TRTEDT": 19906.0,
      "AGE": 63.0,
      "AGEGR1": "<65",
      "AGEGR1N": 1.0,
      "RACE": "WHITE",
      "RACEN": 1.0,
      "SEX": "F",
      "COMP24FL": "Y",
      "DSRAEFL": "",
      "SAFFL": "Y",
      "AVISIT": "Week 12",
      "AVISITN": 12.0,
      "ADY": 84.0,
      "ADT": 19808.0,
      "VISIT": "WEEK 12",
      "VISITNUM": 9.0,
      "PARAM": "Gamma Glutamyl Transferase (U/L) change from previous visit, relative to normal range",
      "PARAMCD": "_GGT",
      "PARAMN": 123.0,
      "PARCAT1": "CHEM",
      "AVAL": 0.4,
      "BASE": null,
      "CHG": null,
      "A1LO": null,
      "A1HI": null,
      "R2A1LO": null,
      "R2A1HI": null,
      "BR2A1LO": null,
      "BR2A1HI": null,
      "ANL01FL": "Y",
      "ALBTRVAL": 52.0,
      "ANRIND": "N",
      "BNRIND": "",
      "ABLFL": "",
      "AENTMTFL": "",
      "LBSEQ": 178.0,
      "LBNRIND": "NORMAL",
      "LBSTRESN": 23.0
    },
    {
      "STUDYID": "CDISCPILOT01",
      "SUBJID": "1015",
      "USUBJID": "01-701-1015",
      "TRTP": "Placebo",
      "TRTPN": 5.397605346934028e-79,
      "TRTA": "Placebo",
      "TRTAN": 5.397605346934028e-79,
      "TRTSDT": 19725.0,
      "TRTEDT": 19906.0,
      "AGE": 63.0,
      "AGEGR1": "<65",
      "AGEGR1N": 1.0,
      "RACE": "WHITE",
      "RACEN": 1.0,
      "SEX": "F",
      "COMP24FL": "Y",
      "DSRAEFL": "",
      "SAFFL": "Y",
      "AVISIT": "Week 12",
      "AVISITN": 12.0,
      "ADY": 84.0,
      "ADT": 19808.0,
      "VISIT": "WEEK 12",
      "VISITNUM": 9.0,
      "PARAM": "Alanine Aminotransferase (U/L) change from previous visit, relative to normal range",
      "PARAMCD": "_ALT",
      "PARAMN": 124.0,
      "PARCAT1": "CHEM",
      "AVAL": 0.4,
      "BASE": null,
      "CHG": null,
      "A1LO": null,
      "A1HI": null,
      "R2A1LO": null,
      "R2A1HI": null,
      "BR2A1LO": null,
      "BR2A1HI": null,
      "ANL01FL": "",
      "ALBTRVAL": 24.0,
      "ANRIND": "N",
      "BNRIND": "",
      "ABLFL": "",
      "AENTMTFL": "",
      "LBSEQ": 166.0,
      "LBNRIND": "NORMAL",
      "LBSTRESN": 27.0
    },
    {
      "STUDYID": "CDISCPILOT01",
      "SUBJID": "1015",
      "USUBJID": "01-701-1015",
      "TRTP": "Placebo",
      "TRTPN": 5.397605346934028e-79,
      "TRTA": "Placebo",
      "TRTAN": 5.397605346934028e-79,
      "TRTSDT": 19725.0,
      "TRTEDT": 19906.0,
      "AGE": 63.0,
      "AGEGR1": "<65",
      "AGEGR1N": 1.0,
      "RACE": "WHITE",
      "RACEN": 1.0,
      "SEX": "F",
      "COMP24FL": "Y",
      "DSRAEFL": "",
      "SAFFL": "Y",
      "AVISIT": "Week 12",
      "AVISITN": 12.0,
      "ADY": 84.0,
      "ADT": 19808.0,
      "VISIT": "WEEK 12",
      "VISITNUM": 9.0,
      "PARAM": "Aspartate Aminotransferase (U/L) change from previous visit, relative to normal range",
      "PARAMCD": "_AST",
      "PARAMN": 125.0,
      "PARCAT1": "CHEM",
      "AVAL": 0.1,
      "BASE": null,
      "CHG": null,
      "A1LO": null,
      "A1HI": null,
      "R2A1LO": null,
      "R2A1HI": null,
      "BR2A1LO": null,
      "BR2A1HI": null,
      "ANL01FL": "",
      "ALBTRVAL": 29.0,
      "ANRIND": "N",
      "BNRIND": "",
      "ABLFL": "",
      "AENTMTFL": "",
      "LBSEQ": 167.0,
      "LBNRIND": "NORMAL",
      "LBSTRESN": 22.0
    },
    {
      "STUDYID": "CDISCPILOT01",
      "SUBJID": "1015",
      "USUBJID": "01-701-1015",
      "TRTP": "Placebo",
      "TRTPN": 5.397605346934028e-79,
      "TRTA": "Placebo",
      "TRTAN": 5.397605346934028e-79,
      "TRTSDT": 19725.0,
      "TRTEDT": 19906.0,
      "AGE": 63.0,
      "AGEGR1": "<65",
      "AGEGR1N": 1.0,
      "RACE": "WHITE",
      "RACEN": 1.0,
      "SEX": "F",
      "COMP24FL": "Y",
      "DSRAEFL": "",
      "SAFFL": "Y",
      "AVISIT": "Week 12",
      "AVISITN": 12.0,
      "ADY": 84.0,
      "ADT": 19808.0,
      "VISIT": "WEEK 12",
      "VISITNUM": 9.0,
      "PARAM": "Blood Urea Nitrogen (mmol/L) change from previous visit, relative to normal range",
      "PARAMCD": "_BUN",
      "PARAMN": 126.0,
      "PARCAT1": "CHEM",
      "AVAL": -0.1,
      "BASE": null,
      "CHG": null,
      "A1LO": null,
      "A1HI": null,
      "R2A1LO": null,
      "R2A1HI": null,
      "BR2A1LO": null,
      "BR2A1HI": null,
      "ANL01FL": "",
      "ALBTRVAL": 9.329999999999998,
      "ANRIND": "N",
      "BNRIND": "",
      "ABLFL": "",
      "AENTMTFL": "",
      "LBSEQ": 170.0,
      "LBNRIND": "NORMAL",
      "LBSTRESN": 3.57
    },
    {
      "STUDYID": "CDISCPILOT01",
      "SUBJID": "1015",
      "USUBJID": "01-701-1015",
      "TRTP": "Placebo",
      "TRTPN": 5.397605346934028e-79,
      "TRTA": "Placebo",
      "TRTAN": 5.397605346934028e-79,
      "TRTSDT": 19725.0,
      "TRTEDT": 19906.0,
      "AGE": 63.0,
      "AGEGR1": "<65",
      "AGEGR1N": 1.0,
      "RACE": "WHITE",
      "RACEN": 1.0,
      "SEX": "F",
      "COMP24FL": "Y",
      "DSRAEFL": "",
      "SAFFL": "Y",
      "AVISIT": "Week 12",
      "AVISITN": 12.0,
      "ADY": 84.0,
      "ADT": 19808.0,
      "VISIT": "WEEK 12",
      "VISITNUM": 9.0,
      "PARAM": "Creatinine (umol/L) change from previous visit, relative to normal range",
      "PARAMCD": "_CREAT",
      "PARAMN": 127.0,
      "PARCAT1": "CHEM",
      "AVAL": -0.3,
      "BASE": null,
      "CHG": null,
      "A1LO": null,
      "A1HI": null,
      "R2A1LO": null,
      "R2A1HI": null,
      "BR2A1LO": null,
      "BR2A1HI": null,
      "ANL01FL": "",
      "ALBTRVAL": 106.44000000000001,
      "ANRIND": "N",
      "BNRIND": "",
      "ABLFL": "",
      "AENTMTFL": "",
      "LBSEQ": 176.0,
      "LBNRIND": "NORMAL",
      "LBSTRESN": 79.55999999999999
    },
    {
      "STUDYID": "CDISCPILOT01",
      "SUBJID": "1015",
      "USUBJID": "01-701-1015",
      "TRTP": "Placebo",
      "TRTPN": 5.397605346934028e-79,
      "TRTA": "Placebo",
      "TRTAN": 5.397605346934028e-79,
      "TRTSDT": 19725.0,
      "TRTEDT": 19906.0,
      "AGE": 63.0,
      "AGEGR1": "<65",
      "AGEGR1N": 1.0,
      "RACE": "WHITE",
      "RACEN": 1.0,
      "SEX": "F",
      "COMP24FL": "Y",
      "DSRAEFL": "",
      "SAFFL": "Y",
      "AVISIT": "Week 12",
      "AVISITN": 12.0,
      "ADY": 84.0,
      "ADT": 19808.0,
      "VISIT": "WEEK 12",
      "VISITNUM": 9.0,
      "PARAM": "Urate (umol/L) change from previous visit, relative to normal range",
      "PARAMCD": "_URATE",
      "PARAMN": 128.0,
      "PARCAT1": "CHEM",
      "AVAL": -0.1,
      "BASE": null,
      "CHG": null,
      "A1LO": null,
      "A1HI": null,
      "R2A1LO": null,
      "R2A1HI": null,
      "BR2A1LO": null,
      "BR2A1HI": null,
      "ANL01FL": "",
      "ALBTRVAL": 407.288,
      "ANRIND": "N",
      "BNRIND": "",
      "ABLFL": "",
      "AENTMTFL": "",
      "LBSEQ": 196.0,
      "LBNRIND": "NORMAL",
      "LBSTRESN": 261.712
    },
    {
      "STUDYID": "CDISCPILOT01",
      "SUBJID": "1015",
      "USUBJID": "01-701-1015",
      "TRTP": "Placebo",
      "TRTPN": 5.397605346934028e-79,
      "TRTA": "Placebo",
      "TRTAN": 5.397605346934028e-79,
      "TRTSDT": 19725.0,
      "TRTEDT": 19906.0,
      "AGE": 63.0,
      "AGEGR1": "<65",
      "AGEGR1N": 1.0,
      "RACE": "WHITE",
      "RACEN": 1.0,
      "SEX": "F",
      "COMP24FL": "Y",
      "DSRAEFL": "",
      "SAFFL": "Y",
      "AVISIT": "Week 12",
      "AVISITN": 12.0,
      "ADY": 84.0,
      "ADT": 19808.0,
      "VISIT": "WEEK 12",
      "VISITNUM": 9.0,
      "PARAM": "Phosphate (mmol/L) change from previous visit, relative to normal range",
      "PARAMCD": "_PHOS",
      "PARAMN": 129.0,
      "PARCAT1": "CHEM",
      "AVAL": 0.1,
      "BASE": null,
      "CHG": null,
      "A1LO": null,
      "A1HI": null,
      "R2A1LO": null,
      "R2A1HI": null,
      "BR2A1LO": null,
      "BR2A1HI": null,
      "ANL01FL": "",
      "ALBTRVAL": 1.2479799999999996,
      "ANRIND": "N",
      "BNRIND": "",
      "ABLFL": "",
      "AENTMTFL": "",
      "LBSEQ": 191.0,
      "LBNRIND": "NORMAL",
      "LBSTRESN": 1.22702
    },
    {
      "STUDYID": "CDISCPILOT01",
      "SUBJID": "1015",
      "USUBJID": "01-701-1015",
      "TRTP": "Placebo",
      "TRTPN": 5.397605346934028e-79,
      "TRTA": "Placebo",
      "TRTAN": 5.397605346934028e-79,
      "TRTSDT": 19725.0,
      "TRTEDT": 19906.0,
      "AGE": 63.0,
      "AGEGR1": "<65",
      "AGEGR1N": 1.0,
      "RACE": "WHITE",
      "RACEN": 1.0,
      "SEX": "F",
      "COMP24FL": "Y",
      "DSRAEFL": "",
      "SAFFL": "Y",
      "AVISIT": "Week 12",
      "AVISITN": 12.0,
      "ADY": 84.0,
      "ADT": 19808.0,
      "VISIT": "WEEK 12",
      "VISITNUM": 9.0,
      "PARAM": "Calcium (mmol/L) change from previous visit, relative to normal range",
      "PARAMCD": "_CA",
      "PARAMN": 130.0,
      "PARCAT1": "CHEM",
      "AVAL": 0.5,
      "BASE": null,
      "CHG": null,
      "A1LO": null,
      "A1HI": null,
      "R2A1LO": null,
      "R2A1HI": null,
      "BR2A1LO": null,
      "BR2A1HI": null,
      "ANL01FL": "",
      "ALBTRVAL": 1.5096999999999996,
      "ANRIND": "N",
      "BNRIND": "",
      "ABLFL": "",
      "AENTMTFL": "",
      "LBSEQ": 171.0,
      "LBNRIND": "NORMAL",
      "LBSTRESN": 2.3453
    },
    {
      "STUDYID": "CDISCPILOT01",
      "SUBJID": "1015",
      "USUBJID": "01-701-1015",
      "TRTP": "Placebo",
      "TRTPN": 5.397605346934028e-79,
      "TRTA": "Placebo",
      "TRTAN": 5.397605346934028e-79,
      "TRTSDT": 19725.0,
      "TRTEDT": 19906.0,
      "AGE": 63.0,
      "AGEGR1": "<65",
      "AGEGR1N": 1.0,
      "RACE": "WHITE",
      "RACEN": 1.0,
      "SEX": "F",
      "COMP24FL": "Y",
      "DSRAEFL": "",
      "SAFFL": "Y",
      "AVISIT": "Week 12",
      "AVISITN": 12.0,
      "ADY": 84.0,
      "ADT": 19808.0,
      "VISIT": "WEEK 12",
      "VISITNUM": 9.0,
      "PARAM": "Glucose (mmol/L) change from previous visit, relative to normal range",
      "PARAMCD": "_GLUC",
      "PARAMN": 131.0,
      "PARCAT1": "CHEM",
      "AVAL": 0.1,
      "BASE": null,
      "CHG": null,
      "A1LO": null,
      "A1HI": null,
      "R2A1LO": null,
      "R2A1HI": null,
      "BR2A1LO": null,
      "BR2A1HI": null,
      "ANL01FL": "",
      "ALBTRVAL": 16.020629999999997,
      "ANRIND": "N",
      "BNRIND": "",
      "ABLFL": "",
      "AENTMTFL": "",
      "LBSEQ": 179.0,
      "LBNRIND": "NORMAL",
      "LBSTRESN": 4.82937
    },
    {
      "STUDYID": "CDISCPILOT01",
      "SUBJID": "1015",
      "USUBJID": "01-701-1015",
      "TRTP": "Placebo",
      "TRTPN": 5.397605346934028e-79,
      "TRTA": "Placebo",
      "TRTAN": 5.397605346934028e-79,
      "TRTSDT": 19725.0,
      "TRTEDT": 19906.0,
      "AGE": 63.0,
      "AGEGR1": "<65",
      "AGEGR1N": 1.0,
      "RACE": "WHITE",
      "RACEN": 1.0,
      "SEX": "F",
      "COMP24FL": "Y",
      "DSRAEFL": "",
      "SAFFL": "Y",
      "AVISIT": "Week 12",
      "AVISITN": 12.0,
      "ADY": 84.0,
      "ADT": 19808.0,
      "VISIT": "WEEK 12",
      "VISITNUM": 9.0,
      "PARAM": "Protein (g/L) change from previous visit, relative to normal range",
      "PARAMCD": "_PROT",
      "PARAMN": 132.0,
      "PARCAT1": "CHEM",
      "AVAL": 0.1,
      "BASE": null,
      "CHG": null,
      "A1LO": null,
      "A1HI": null,
      "R2A1LO": null,
      "R2A1HI": null,
      "BR2A1LO": null,
      "BR2A1HI": null,
      "ANL01FL": "",
      "ALBTRVAL": 50.0,
      "ANRIND": "N",
      "BNRIND": "",
      "ABLFL": "",
      "AENTMTFL": "",
      "LBSEQ": 193.0,
      "LBNRIND": "NORMAL",
      "LBSTRESN": 70.0
    },
    {
      "STUDYID": "CDISCPILOT01",
      "SUBJID": "1015",
      "USUBJID": "01-701-1015",
      "TRTP": "Placebo",
      "TRTPN": 5.397605346934028e-79,
      "TRTA": "Placebo",
      "TRTAN": 5.397605346934028e-79,
      "TRTSDT": 19725.0,
      "TRTEDT": 19906.0,
      "AGE": 63.0,
      "AGEGR1": "<65",
      "AGEGR1N": 1.0,
      "RACE": "WHITE",
      "RACEN": 1.0,
      "SEX": "F",
      "COMP24FL": "Y",
      "DSRAEFL": "",
      "SAFFL": "Y",
      "AVISIT": "Week 12",
      "AVISITN": 12.0,
      "ADY": 84.0,
      "ADT": 19808.0,
      "VISIT": "WEEK 12",
      "VISITNUM": 9.0,
      "PARAM": "Albumin (g/L) change from previous visit, relative to normal range",
      "PARAMCD": "_ALB",
      "PARAMN": 133.0,
      "PARCAT1": "CHEM",
      "AVAL": 5.397605346934028e-79,
      "BASE": null,
      "CHG": null,
      "A1LO": null,
      "A1HI": null,
      "R2A1LO": null,
      "R2A1HI": null,
      "BR2A1LO": null,
      "BR2A1HI": null,
      "ANL01FL": "",
      "ALBTRVAL": 35.5,
      "ANRIND": "N",
      "BNRIND": "",
      "ABLFL": "",
      "AENTMTFL": "",
      "LBSEQ": 164.0,
      "LBNRIND": "NORMAL",
      "LBSTRESN": 38.0
    },
    {
      "STUDYID": "CDISCPILOT01",
      "SUBJID": "1015",
      "USUBJID": "01-701-1015",
      "TRTP": "Placebo",
      "TRTPN": 5.397605346934028e-79,
      "TRTA": "Placebo",
      "TRTAN": 5.397605346934028e-79,
      "TRTSDT": 19725.0,
      "TRTEDT": 19906.0,
      "AGE": 63.0,
      "AGEGR1": "<65",
      "AGEGR1N": 1.0,
      "RACE": "WHITE",
      "RACEN": 1.0,
      "SEX": "F",
      "COMP24FL": "Y",
      "DSRAEFL": "",
      "SAFFL": "Y",
      "AVISIT": "Week 12",
      "AVISITN": 12.0,
      "ADY": 84.0,
      "ADT": 19808.0,
      "VISIT": "WEEK 12",
      "VISITNUM": 9.0,
      "PARAM": "Cholesterol (mmol/L) change from previous visit, relative to normal range",
      "PARAMCD": "_CHOL",
      "PARAMN": 134.0,
      "PARCAT1": "CHEM",
      "AVAL": 0.1,
      "BASE": null,
      "CHG": null,
      "A1LO": null,
      "A1HI": null,
      "R2A1LO": null,
      "R2A1HI": null,
      "BR2A1LO": null,
      "BR2A1HI": null,
      "ANL01FL": "",
      "ALBTRVAL": 6.0025200000000005,
      "ANRIND": "N",
      "BNRIND": "",
      "ABLFL": "",
      "AENTMTFL": "",
      "LBSEQ": 172.0,
      "LBNRIND": "NORMAL",
      "LBSTRESN": 5.63748
    },
    {
      "STUDYID": "CDISCPILOT01",
      "SUBJID": "1015",
      "USUBJID": "01-701-1015",
      "TRTP": "Placebo",
      "TRTPN": 5.397605346934028e-79,
      "TRTA": "Placebo",
      "TRTAN": 5.397605346934028e-79,
      "TRTSDT": 19725.0,
      "TRTEDT": 19906.0,
      "AGE": 63.0,
      "AGEGR1": "<65",
      "AGEGR1N": 1.0,
      "RACE": "WHITE",
      "RACEN": 1.0,
      "SEX": "F",
      "COMP24FL": "Y",
      "DSRAEFL": "",
      "SAFFL": "Y",
      "AVISIT": "Week 12",
      "AVISITN": 12.0,
      "ADY": 84.0,
      "ADT": 19808.0,
      "VISIT": "WEEK 12",
      "VISITNUM": 9.0,
      "PARAM": "Creatine Kinase (U/L) change from previous visit, relative to normal range",
      "PARAMCD": "_CK",
      "PARAMN": 135.0,
      "PARCAT1": "CHEM",
      "AVAL": 0.1,
      "BASE": null,
      "CHG": null,
      "A1LO": null,
      "A1HI": null,
      "R2A1LO": null,
      "R2A1HI": null,
      "BR2A1LO": null,
      "BR2A1HI": null,
      "ANL01FL": "",
      "ALBTRVAL": 197.5,
      "ANRIND": "N",
      "BNRIND": "",
      "ABLFL": "",
      "AENTMTFL": "",
      "LBSEQ": 173.0,
      "LBNRIND": "NORMAL",
      "LBSTRESN": 56.0
    },
    {
      "STUDYID": "CDISCPILOT01",
      "SUBJID": "1015",
      "USUBJID": "01-701-1015",
      "TRTP": "Placebo",
      "TRTPN": 5.397605346934028e-79,
      "TRTA": "Placebo",
      "TRTAN": 5.397605346934028e-79,
      "TRTSDT": 19725.0,
      "TRTEDT": 19906.0,
      "AGE": 63.0,
      "AGEGR1": "<65",
      "AGEGR1N": 1.0,
      "RACE": "WHITE",
      "RACEN": 1.0,
      "SEX": "F",
      "COMP24FL": "Y",
      "DSRAEFL": "",
      "SAFFL": "Y",
      "AVISIT": "Week 16",
      "AVISITN": 16.0,
      "ADY": 126.0,
      "ADT": 19850.0,
      "VISIT": "WEEK 16",
      "VISITNUM": 10.0,
      "PARAM": "Sodium (mmol/L) change from previous visit, relative to normal range",
      "PARAMCD": "_SODIUM",
      "PARAMN": 118.0,
      "PARCAT1": "CHEM",
      "AVAL": 0.4,
      "BASE": null,
      "CHG": null,
      "A1LO": null,
      "A1HI": null,
      "R2A1LO": null,
      "R2A1HI": null,
      "BR2A1LO": null,
      "BR2A1HI": null,
      "ANL01FL": "",
      "ALBTRVAL": 76.5,
      "ANRIND": "N",
      "BNRIND": "",
      "ABLFL": "",
      "AENTMTFL": "",
      "LBSEQ": 222.0,
      "LBNRIND": "NORMAL",
      "LBSTRESN": 141.0
    },
    {
      "STUDYID": "CDISCPILOT01",
      "SUBJID": "1015",
      "USUBJID": "01-701-1015",
      "TRTP": "Placebo",
      "TRTPN": 5.397605346934028e-79,
      "TRTA": "Placebo",
      "TRTAN": 5.397605346934028e-79,
      "TRTSDT": 19725.0,
      "TRTEDT": 19906.0,
      "AGE": 63.0,
      "AGEGR1": "<65",
      "AGEGR1N": 1.0,
      "RACE": "WHITE",
      "RACEN": 1.0,
      "SEX": "F",
      "COMP24FL": "Y",
      "DSRAEFL": "",
      "SAFFL": "Y",
      "AVISIT": "Week 16",
      "AVISITN": 16.0,
      "ADY": 126.0,
      "ADT": 19850.0,
      "VISIT": "WEEK 16",
      "VISITNUM": 10.0,
      "PARAM": "Potassium (mmol/L) change from previous visit, relative to normal range",
      "PARAMCD": "_K",
      "PARAMN": 119.0,
      "PARCAT1": "CHEM",
      "AVAL": 0.5,
      "BASE": null,
      "CHG": null,
      "A1LO": null,
      "A1HI": null,
      "R2A1LO": null,
      "R2A1HI": null,
      "BR2A1LO": null,
      "BR2A1HI": null,
      "ANL01FL": "",
      "ALBTRVAL": 4.0,
      "ANRIND": "N",
      "BNRIND": "",
      "ABLFL": "",
      "AENTMTFL": "",
      "LBSEQ": 216.0,
      "LBNRIND": "NORMAL",
      "LBSTRESN": 4.1
    },
    {
      "STUDYID": "CDISCPILOT01",
      "SUBJID": "1015",
      "USUBJID": "01-701-1015",
      "TRTP": "Placebo",
      "TRTPN": 5.397605346934028e-79,
      "TRTA": "Placebo",
      "TRTAN": 5.397605346934028e-79,
      "TRTSDT": 19725.0,
      "TRTEDT": 19906.0,
      "AGE": 63.0,
      "AGEGR1": "<65",
      "AGEGR1N": 1.0,
      "RACE": "WHITE",
      "RACEN": 1.0,
      "SEX": "F",
      "COMP24FL": "Y",
      "DSRAEFL": "",
      "SAFFL": "Y",
      "AVISIT": "Week 16",
      "AVISITN": 16.0,
      "ADY": 126.0,
      "ADT": 19850.0,
      "VISIT": "WEEK 16",
      "VISITNUM": 10.0,
      "PARAM": "Chloride (mmol/L) change from previous visit, relative to normal range",
      "PARAMCD": "_CL",
      "PARAMN": 120.0,
      "PARCAT1": "CHEM",
      "AVAL": 0.4,
      "BASE": null,
      "CHG": null,
      "A1LO": null,
      "A1HI": null,
      "R2A1LO": null,
      "R2A1HI": null,
      "BR2A1LO": null,
      "BR2A1HI": null,
      "ANL01FL": "",
      "ALBTRVAL": 65.0,
      "ANRIND": "N",
      "BNRIND": "",
      "ABLFL": "",
      "AENTMTFL": "",
      "LBSEQ": 209.0,
      "LBNRIND": "NORMAL",
      "LBSTRESN": 103.0
    },
    {
      "STUDYID": "CDISCPILOT01",
      "SUBJID": "1015",
      "USUBJID": "01-701-1015",
      "TRTP": "Placebo",
      "TRTPN": 5.397605346934028e-79,
      "TRTA": "Placebo",
      "TRTAN": 5.397605346934028e-79,
      "TRTSDT": 19725.0,
      "TRTEDT": 19906.0,
      "AGE": 63.0,
      "AGEGR1": "<65",
      "AGEGR1N": 1.0,
      "RACE": "WHITE",
      "RACEN": 1.0,
      "SEX": "F",
      "COMP24FL": "Y",
      "DSRAEFL": "",
      "SAFFL": "Y",
      "AVISIT": "Week 16",
      "AVISITN": 16.0,
      "ADY": 126.0,
      "ADT": 19850.0,
      "VISIT": "WEEK 16",
      "VISITNUM": 10.0,
      "PARAM": "Bilirubin (umol/L) change from previous visit, relative to normal range",
      "PARAMCD": "_BILI",
      "PARAMN": 121.0,
      "PARCAT1": "CHEM",
      "AVAL": 5.397605346934028e-79,
      "BASE": null,
      "CHG": null,
      "A1LO": null,
      "A1HI": null,
      "R2A1LO": null,
      "R2A1HI": null,
      "BR2A1LO": null,
      "BR2A1HI": null,
      "ANL01FL": "",
      "ALBTRVAL": 24.66,
      "ANRIND": "N",
      "BNRIND": "",
      "ABLFL": "",
      "AENTMTFL": "",
      "LBSEQ": 204.0,
      "LBNRIND": "NORMAL",
      "LBSTRESN": 6.84
    },
    {
      "STUDYID": "CDISCPILOT01",
      "SUBJID": "1015",
      "USUBJID": "01-701-1015",
      "TRTP": "Placebo",
      "TRTPN": 5.397605346934028e-79,
      "TRTA": "Placebo",
      "TRTAN": 5.397605346934028e-79,
      "TRTSDT": 19725.0,
      "TRTEDT": 19906.0,
      "AGE": 63.0,
      "AGEGR1": "<65",
      "AGEGR1N": 1.0,
      "RACE": "WHITE",
      "RACEN": 1.0,
      "SEX": "F",
      "COMP24FL": "Y",
      "DSRAEFL": "",
      "SAFFL": "Y",
      "AVISIT": "Week 16",
      "AVISITN": 16.0,
      "ADY": 126.0,
      "ADT": 19850.0,
      "VISIT": "WEEK 16",
      "VISITNUM": 10.0,
      "PARAM": "Alkaline Phosphatase (U/L) change from previous visit, relative to normal range",
      "PARAMCD": "_ALP",
      "PARAMN": 122.0,
      "PARCAT1": "CHEM",
      "AVAL": -0.3,
      "BASE": null,
      "CHG": null,
      "A1LO": null,
      "A1HI": null,
      "R2A1LO": null,
      "R2A1HI": null,
      "BR2A1LO": null,
      "BR2A1HI": null,
      "ANL01FL": "",
      "ALBTRVAL": 131.5,
      "ANRIND": "N",
      "BNRIND": "",
      "ABLFL": "",
      "AENTMTFL": "",
      "LBSEQ": 200.0,
      "LBNRIND": "NORMAL",
      "LBSTRESN": 41.0
    },
    {
      "STUDYID": "CDISCPILOT01",
      "SUBJID": "1015",
      "USUBJID": "01-701-1015",
      "TRTP": "Placebo",
      "TRTPN": 5.397605346934028e-79,
      "TRTA": "Placebo",
      "TRTAN": 5.397605346934028e-79,
      "TRTSDT": 19725.0,
      "TRTEDT": 19906.0,
      "AGE": 63.0,
      "AGEGR1": "<65",
      "AGEGR1N": 1.0,
      "RACE": "WHITE",
      "RACEN": 1.0,
      "SEX": "F",
      "COMP24FL": "Y",
      "DSRAEFL": "",
      "SAFFL": "Y",
      "AVISIT": "Week 16",
      "AVISITN": 16.0,
      "ADY": 126.0,
      "ADT": 19850.0,
      "VISIT": "WEEK 16",
      "VISITNUM": 10.0,
      "PARAM": "Gamma Glutamyl Transferase (U/L) change from previous visit, relative to normal range",
      "PARAMCD": "_GGT",
      "PARAMN": 123.0,
      "PARCAT1": "CHEM",
      "AVAL": -0.4,
      "BASE": null,
      "CHG": null,
      "A1LO": null,
      "A1HI": null,
      "R2A1LO": null,
      "R2A1HI": null,
      "BR2A1LO": null,
      "BR2A1HI": null,
      "ANL01FL": "",
      "ALBTRVAL": 60.0,
      "ANRIND": "N",
      "BNRIND": "",
      "ABLFL": "",
      "AENTMTFL": "",
      "LBSEQ": 212.0,
      "LBNRIND": "NORMAL",
      "LBSTRESN": 15.0
    },
    {
      "STUDYID": "CDISCPILOT01",
      "SUBJID": "1015",
      "USUBJID": "01-701-1015",
      "TRTP": "Placebo",
      "TRTPN": 5.397605346934028e-79,
      "TRTA": "Placebo",
      "TRTAN": 5.397605346934028e-79,
      "TRTSDT": 19725.0,
      "TRTEDT": 19906.0,
      "AGE": 63.0,
      "AGEGR1": "<65",
      "AGEGR1N": 1.0,
      "RACE": "WHITE",
      "RACEN": 1.0,
      "SEX": "F",
      "COMP24FL": "Y",
      "DSRAEFL": "",
      "SAFFL": "Y",
      "AVISIT": "Week 16",
      "AVISITN": 16.0,
      "ADY": 126.0,
      "ADT": 19850.0,
      "VISIT": "WEEK 16",
      "VISITNUM": 10.0,
      "PARAM": "Alanine Aminotransferase (U/L) change from previous visit, relative to normal range",
      "PARAMCD": "_ALT",
      "PARAMN": 124.0,
      "PARCAT1": "CHEM",
      "AVAL": -0.7,
      "BASE": null,
      "CHG": null,
      "A1LO": null,
      "A1HI": null,
      "R2A1LO": null,
      "R2A1HI": null,
      "BR2A1LO": null,
      "BR2A1HI": null,
      "ANL01FL": "",
      "ALBTRVAL": 34.0,
      "ANRIND": "N",
      "BNRIND": "",
      "ABLFL": "",
      "AENTMTFL": "",
      "LBSEQ": 201.0,
      "LBNRIND": "NORMAL",
      "LBSTRESN": 17.0
    },
    {
      "STUDYID": "CDISCPILOT01",
      "SUBJID": "1015",
      "USUBJID": "01-701-1015",
      "TRTP": "Placebo",
      "TRTPN": 5.397605346934028e-79,
      "TRTA": "Placebo",
      "TRTAN": 5.397605346934028e-79,
      "TRTSDT": 19725.0,
      "TRTEDT": 19906.0,
      "AGE": 63.0,
      "AGEGR1": "<65",
      "AGEGR1N": 1.0,
      "RACE": "WHITE",
      "RACEN": 1.0,
      "SEX": "F",
      "COMP24FL": "Y",
      "DSRAEFL": "",
      "SAFFL": "Y",
      "AVISIT": "Week 16",
      "AVISITN": 16.0,
      "ADY": 126.0,
      "ADT": 19850.0,
      "VISIT": "WEEK 16",
      "VISITNUM": 10.0,
      "PARAM": "Aspartate Aminotransferase (U/L) change from previous visit, relative to normal range",
      "PARAMCD": "_AST",
      "PARAMN": 125.0,
      "PARCAT1": "CHEM",
      "AVAL": 0.1,
      "BASE": null,
      "CHG": null,
      "A1LO": null,
      "A1HI": null,
      "R2A1LO": null,
      "R2A1HI": null,
      "BR2A1LO": null,
      "BR2A1HI": null,
      "ANL01FL": "",
      "ALBTRVAL": 28.0,
      "ANRIND": "N",
      "BNRIND": "",
      "ABLFL": "",
      "AENTMTFL": "",
      "LBSEQ": 202.0,
      "LBNRIND": "NORMAL",
      "LBSTRESN": 23.0
    },
    {
      "STUDYID": "CDISCPILOT01",
      "SUBJID": "1015",
      "USUBJID": "01-701-1015",
      "TRTP": "Placebo",
      "TRTPN": 5.397605346934028e-79,
      "TRTA": "Placebo",
      "TRTAN": 5.397605346934028e-79,
      "TRTSDT": 19725.0,
      "TRTEDT": 19906.0,
      "AGE": 63.0,
      "AGEGR1": "<65",
      "AGEGR1N": 1.0,
      "RACE": "WHITE",
      "RACEN": 1.0,
      "SEX": "F",
      "COMP24FL": "Y",
      "DSRAEFL": "",
      "SAFFL": "Y",
      "AVISIT": "Week 16",
      "AVISITN": 16.0,
      "ADY": 126.0,
      "ADT": 19850.0,
      "VISIT": "WEEK 16",
      "VISITNUM": 10.0,
      "PARAM": "Blood Urea Nitrogen (mmol/L) change from previous visit, relative to normal range",
      "PARAMCD": "_BUN",
      "PARAMN": 126.0,
      "PARCAT1": "CHEM",
      "AVAL": 5.397605346934028e-79,
      "BASE": null,
      "CHG": null,
      "A1LO": null,
      "A1HI": null,
      "R2A1LO": null,
      "R2A1HI": null,
      "BR2A1LO": null,
      "BR2A1HI": null,
      "ANL01FL": "",
      "ALBTRVAL": 9.329999999999998,
      "ANRIND": "N",
      "BNRIND": "",
      "ABLFL": "",
      "AENTMTFL": "",
      "LBSEQ": 205.0,
      "LBNRIND": "NORMAL",
      "LBSTRESN": 3.57
    },
    {
      "STUDYID": "CDISCPILOT01",
      "SUBJID": "1015",
      "USUBJID": "01-701-1015",
      "TRTP": "Placebo",
      "TRTPN": 5.397605346934028e-79,
      "TRTA": "Placebo",
      "TRTAN": 5.397605346934028e-79,
      "TRTSDT": 19725.0,
      "TRTEDT": 19906.0,
      "AGE": 63.0,
      "AGEGR1": "<65",
      "AGEGR1N": 1.0,
      "RACE": "WHITE",
      "RACEN": 1.0,
      "SEX": "F",
      "COMP24FL": "Y",
      "DSRAEFL": "",
      "SAFFL": "Y",
      "AVISIT": "Week 16",
      "AVISITN": 16.0,
      "ADY": 126.0,
      "ADT": 19850.0,
      "VISIT": "WEEK 16",
      "VISITNUM": 10.0,
      "PARAM": "Creatinine (umol/L) change from previous visit, relative to normal range",
      "PARAMCD": "_CREAT",
      "PARAMN": 127.0,
      "PARCAT1": "CHEM",
      "AVAL": 0.3,
      "BASE": null,
      "CHG": null,
      "A1LO": null,
      "A1HI": null,
      "R2A1LO": null,
      "R2A1HI": null,
      "BR2A1LO": null,
      "BR2A1HI": null,
      "ANL01FL": "",
      "ALBTRVAL": 97.60000000000001,
      "ANRIND": "N",
      "BNRIND": "",
      "ABLFL": "",
      "AENTMTFL": "",
      "LBSEQ": 210.0,
      "LBNRIND": "NORMAL",
      "LBSTRESN": 88.39999999999999
    },
    {
      "STUDYID": "CDISCPILOT01",
      "SUBJID": "1015",
      "USUBJID": "01-701-1015",
      "TRTP": "Placebo",
      "TRTPN": 5.397605346934028e-79,
      "TRTA": "Placebo",
      "TRTAN": 5.397605346934028e-79,
      "TRTSDT": 19725.0,
      "TRTEDT": 19906.0,
      "AGE": 63.0,
      "AGEGR1": "<65",
      "AGEGR1N": 1.0,
      "RACE": "WHITE",
      "RACEN": 1.0,
      "SEX": "F",
      "COMP24FL": "Y",
      "DSRAEFL": "",
      "SAFFL": "Y",
      "AVISIT": "Week 16",
      "AVISITN": 16.0,
      "ADY": 126.0,
      "ADT": 19850.0,
      "VISIT": "WEEK 16",
      "VISITNUM": 10.0,
      "PARAM": "Urate (umol/L) change from previous visit, relative to normal range",
      "PARAMCD": "_URATE",
      "PARAMN": 128.0,
      "PARCAT1": "CHEM",
      "AVAL": 5.397605346934028e-79,
      "BASE": null,
      "CHG": null,
      "A1LO": null,
      "A1HI": null,
      "R2A1LO": null,
      "R2A1HI": null,
      "BR2A1LO": null,
      "BR2A1HI": null,
      "ANL01FL": "",
      "ALBTRVAL": 413.236,
      "ANRIND": "N",
      "BNRIND": "",
      "ABLFL": "",
      "AENTMTFL": "",
      "LBSEQ": 227.0,
      "LBNRIND": "NORMAL",
      "LBSTRESN": 255.76399999999998
    },
    {
      "STUDYID": "CDISCPILOT01",
      "SUBJID": "1015",
      "USUBJID": "01-701-1015",
      "TRTP": "Placebo",
      "TRTPN": 5.397605346934028e-79,
      "TRTA": "Placebo",
      "TRTAN": 5.397605346934028e-79,
      "TRTSDT": 19725.0,
      "TRTEDT": 19906.0,
      "AGE": 63.0,
      "AGEGR1": "<65",
      "AGEGR1N": 1.0,
      "RACE": "WHITE",
      "RACEN": 1.0,
      "SEX": "F",
      "COMP24FL": "Y",
      "DSRAEFL": "",
      "SAFFL": "Y",
      "AVISIT": "Week 16",
      "AVISITN": 16.0,
      "ADY": 126.0,
      "ADT": 19850.0,
      "VISIT": "WEEK 16",
      "VISITNUM": 10.0,
      "PARAM": "Phosphate (mmol/L) change from previous visit, relative to normal range",
      "PARAMCD": "_PHOS",
      "PARAMN": 129.0,
      "PARCAT1": "CHEM",
      "AVAL": 0.1,
      "BASE": null,
      "CHG": null,
      "A1LO": null,
      "A1HI": null,
      "R2A1LO": null,
      "R2A1HI": null,
      "BR2A1LO": null,
      "BR2A1HI": null,
      "ANL01FL": "",
      "ALBTRVAL": 1.1833999999999996,
      "ANRIND": "N",
      "BNRIND": "",
      "ABLFL": "",
      "AENTMTFL": "",
      "LBSEQ": 223.0,
      "LBNRIND": "NORMAL",
      "LBSTRESN": 1.2916
    },
    {
      "STUDYID": "CDISCPILOT01",
      "SUBJID": "1015",
      "USUBJID": "01-701-1015",
      "TRTP": "Placebo",
      "TRTPN": 5.397605346934028e-79,
      "TRTA": "Placebo",
      "TRTAN": 5.397605346934028e-79,
      "TRTSDT": 19725.0,
      "TRTEDT": 19906.0,
      "AGE": 63.0,
      "AGEGR1": "<65",
      "AGEGR1N": 1.0,
      "RACE": "WHITE",
      "RACEN": 1.0,
      "SEX": "F",
      "COMP24FL": "Y",
      "DSRAEFL": "",
      "SAFFL": "Y",
      "AVISIT": "Week 16",
      "AVISITN": 16.0,
      "ADY": 126.0,
      "ADT": 19850.0,
      "VISIT": "WEEK 16",
      "VISITNUM": 10.0,
      "PARAM": "Calcium (mmol/L) change from previous visit, relative to normal range",
      "PARAMCD": "_CA",
      "PARAMN": 130.0,
      "PARCAT1": "CHEM",
      "AVAL": -0.6,
      "BASE": null,
      "CHG": null,
      "A1LO": null,
      "A1HI": null,
      "R2A1LO": null,
      "R2A1HI": null,
      "BR2A1LO": null,
      "BR2A1HI": null,
      "ANL01FL": "",
      "ALBTRVAL": 1.6593999999999998,
      "ANRIND": "N",
      "BNRIND": "",
      "ABLFL": "",
      "AENTMTFL": "",
      "LBSEQ": 206.0,
      "LBNRIND": "NORMAL",
      "LBSTRESN": 2.1955999999999998
    },
    {
      "STUDYID": "CDISCPILOT01",
      "SUBJID": "1015",
      "USUBJID": "01-701-1015",
      "TRTP": "Placebo",
      "TRTPN": 5.397605346934028e-79,
      "TRTA": "Placebo",
      "TRTAN": 5.397605346934028e-79,
      "TRTSDT": 19725.0,
      "TRTEDT": 19906.0,
      "AGE": 63.0,
      "AGEGR1": "<65",
      "AGEGR1N": 1.0,
      "RACE": "WHITE",
      "RACEN": 1.0,
      "SEX": "F",
      "COMP24FL": "Y",
      "DSRAEFL": "",
      "SAFFL": "Y",
      "AVISIT": "Week 16",
      "AVISITN": 16.0,
      "ADY": 126.0,
      "ADT": 19850.0,
      "VISIT": "WEEK 16",
      "VISITNUM": 10.0,
      "PARAM": "Glucose (mmol/L) change from previous visit, relative to normal range",
      "PARAMCD": "_GLUC",
      "PARAMN": 131.0,
      "PARCAT1": "CHEM",
      "AVAL": 5.397605346934028e-79,
      "BASE": null,
      "CHG": null,
      "A1LO": null,
      "A1HI": null,
      "R2A1LO": null,
      "R2A1HI": null,
      "BR2A1LO": null,
      "BR2A1HI": null,
      "ANL01FL": "",
      "ALBTRVAL": 16.07614,
      "ANRIND": "N",
      "BNRIND": "",
      "ABLFL": "",
      "AENTMTFL": "",
      "LBSEQ": 213.0,
      "LBNRIND": "NORMAL",
      "LBSTRESN": 4.77386
    },
    {
      "STUDYID": "CDISCPILOT01",
      "SUBJID": "1015",
      "USUBJID": "01-701-1015",
      "TRTP": "Placebo",
      "TRTPN": 5.397605346934028e-79,
      "TRTA": "Placebo",
      "TRTAN": 5.397605346934028e-79,
      "TRTSDT": 19725.0,
      "TRTEDT": 19906.0,
      "AGE": 63.0,
      "AGEGR1": "<65",
      "AGEGR1N": 1.0,
      "RACE": "WHITE",
      "RACEN": 1.0,
      "SEX": "F",
      "COMP24FL": "Y",
      "DSRAEFL": "",
      "SAFFL": "Y",
      "AVISIT": "Week 16",
      "AVISITN": 16.0,
      "ADY": 126.0,
      "ADT": 19850.0,
      "VISIT": "WEEK 16",
      "VISITNUM": 10.0,
      "PARAM": "Protein (g/L) change from previous visit, relative to normal range",
      "PARAMCD": "_PROT",
      "PARAMN": 132.0,
      "PARCAT1": "CHEM",
      "AVAL": -0.2,
      "BASE": null,
      "CHG": null,
      "A1LO": null,
      "A1HI": null,
      "R2A1LO": null,
      "R2A1HI": null,
      "BR2A1LO": null,
      "BR2A1HI": null,
      "ANL01FL": "",
      "ALBTRVAL": 52.0,
      "ANRIND": "N",
      "BNRIND": "",
      "ABLFL": "",
      "AENTMTFL": "",
      "LBSEQ": 225.0,
      "LBNRIND": "NORMAL",
      "LBSTRESN": 68.0
    },
    {
      "STUDYID": "CDISCPILOT01",
      "SUBJID": "1015",
      "USUBJID": "01-701-1015",
      "TRTP": "Placebo",
      "TRTPN": 5.397605346934028e-79,
      "TRTA": "Placebo",
      "TRTAN": 5.397605346934028e-79,
      "TRTSDT": 19725.0,
      "TRTEDT": 19906.0,
      "AGE": 63.0,
      "AGEGR1": "<65",
      "AGEGR1N": 1.0,
      "RACE": "WHITE",
      "RACEN": 1.0,
      "SEX": "F",
      "COMP24FL": "Y",
      "DSRAEFL": "",
      "SAFFL": "Y",
      "AVISIT": "Week 16",
      "AVISITN": 16.0,
      "ADY": 126.0,
      "ADT": 19850.0,
      "VISIT": "WEEK 16",
      "VISITNUM": 10.0,
      "PARAM": "Albumin (g/L) change from previous visit, relative to normal range",
      "PARAMCD": "_ALB",
      "PARAMN": 133.0,
      "PARCAT1": "CHEM",
      "AVAL": -0.1,
      "BASE": null,
      "CHG": null,
      "A1LO": null,
      "A1HI": null,
      "R2A1LO": null,
      "R2A1HI": null,
      "BR2A1LO": null,
      "BR2A1HI": null,
      "ANL01FL": "",
      "ALBTRVAL": 36.5,
      "ANRIND": "N",
      "BNRIND": "",
      "ABLFL": "",
      "AENTMTFL": "",
      "LBSEQ": 199.0,
      "LBNRIND": "NORMAL",
      "LBSTRESN": 37.0
    },
    {
      "STUDYID": "CDISCPILOT01",
      "SUBJID": "1015",
      "USUBJID": "01-701-1015",
      "TRTP": "Placebo",
      "TRTPN": 5.397605346934028e-79,
      "TRTA": "Placebo",
      "TRTAN": 5.397605346934028e-79,
      "TRTSDT": 19725.0,
      "TRTEDT": 19906.0,
      "AGE": 63.0,
      "AGEGR1": "<65",
      "AGEGR1N": 1.0,
      "RACE": "WHITE",
      "RACEN": 1.0,
      "SEX": "F",
      "COMP24FL": "Y",
      "DSRAEFL": "",
      "SAFFL": "Y",
      "AVISIT": "Week 16",
      "AVISITN": 16.0,
      "ADY": 126.0,
      "ADT": 19850.0,
      "VISIT": "WEEK 16",
      "VISITNUM": 10.0,
      "PARAM": "Cholesterol (mmol/L) change from previous visit, relative to normal range",
      "PARAMCD": "_CHOL",
      "PARAMN": 134.0,
      "PARCAT1": "CHEM",
      "AVAL": -0.1,
      "BASE": null,
      "CHG": null,
      "A1LO": null,
      "A1HI": null,
      "R2A1LO": null,
      "R2A1HI": null,
      "BR2A1LO": null,
      "BR2A1HI": null,
      "ANL01FL": "",
      "ALBTRVAL": 6.131820000000001,
      "ANRIND": "N",
      "BNRIND": "",
      "ABLFL": "",
      "AENTMTFL": "",
      "LBSEQ": 207.0,
      "LBNRIND": "NORMAL",
      "LBSTRESN": 5.508179999999999
    },
    {
      "STUDYID": "CDISCPILOT01",
      "SUBJID": "1015",
      "USUBJID": "01-701-1015",
      "TRTP": "Placebo",
      "TRTPN": 5.397605346934028e-79,
      "TRTA": "Placebo",
      "TRTAN": 5.397605346934028e-79,
      "TRTSDT": 19725.0,
      "TRTEDT": 19906.0,
      "AGE": 63.0,
      "AGEGR1": "<65",
      "AGEGR1N": 1.0,
      "RACE": "WHITE",
      "RACEN": 1.0,
      "SEX": "F",
      "COMP24FL": "Y",
      "DSRAEFL": "",
      "SAFFL": "Y",
      "AVISIT": "Week 16",
      "AVISITN": 16.0,
      "ADY": 126.0,
      "ADT": 19850.0,
      "VISIT": "WEEK 16",
      "VISITNUM": 10.0,
      "PARAM": "Creatine Kinase (U/L) change from previous visit, relative to normal range",
      "PARAMCD": "_CK",
      "PARAMN": 135.0,
      "PARCAT1": "CHEM",
      "AVAL": -0.1,
      "BASE": null,
      "CHG": null,
      "A1LO": null,
      "A1HI": null,
      "R2A1LO": null,
      "R2A1HI": null,
      "BR2A1LO": null,
      "BR2A1HI": null,
      "ANL01FL": "",
      "ALBTRVAL": 203.5,
      "ANRIND": "N",
      "BNRIND": "",
      "ABLFL": "",
      "AENTMTFL": "",
      "LBSEQ": 208.0,
      "LBNRIND": "NORMAL",
      "LBSTRESN": 50.0
    },
    {
      "STUDYID": "CDISCPILOT01",
      "SUBJID": "1015",
      "USUBJID": "01-701-1015",
      "TRTP": "Placebo",
      "TRTPN": 5.397605346934028e-79,
      "TRTA": "Placebo",
      "TRTAN": 5.397605346934028e-79,
      "TRTSDT": 19725.0,
      "TRTEDT": 19906.0,
      "AGE": 63.0,
      "AGEGR1": "<65",
      "AGEGR1N": 1.0,
      "RACE": "WHITE",
      "RACEN": 1.0,
      "SEX": "F",
      "COMP24FL": "Y",
      "DSRAEFL": "",
      "SAFFL": "Y",
      "AVISIT": "Week 20",
      "AVISITN": 20.0,
      "ADY": 140.0,
      "ADT": 19864.0,
      "VISIT": "WEEK 20",
      "VISITNUM": 11.0,
      "PARAM": "Sodium (mmol/L) change from previous visit, relative to normal range",
      "PARAMCD": "_SODIUM",
      "PARAMN": 118.0,
      "PARCAT1": "CHEM",
      "AVAL": 0.2,
      "BASE": null,
      "CHG": null,
      "A1LO": null,
      "A1HI": null,
      "R2A1LO": null,
      "R2A1HI": null,
      "BR2A1LO": null,
      "BR2A1HI": null,
      "ANL01FL": "",
      "ALBTRVAL": 75.5,
      "ANRIND": "N",
      "BNRIND": "",
      "ABLFL": "",
      "AENTMTFL": "",
      "LBSEQ": 252.0,
      "LBNRIND": "NORMAL",
      "LBSTRESN": 142.0
    },
    {
      "STUDYID": "CDISCPILOT01",
      "SUBJID": "1015",
      "USUBJID": "01-701-1015",
      "TRTP": "Placebo",
      "TRTPN": 5.397605346934028e-79,
      "TRTA": "Placebo",
      "TRTAN": 5.397605346934028e-79,
      "TRTSDT": 19725.0,
      "TRTEDT": 19906.0,
      "AGE": 63.0,
      "AGEGR1": "<65",
      "AGEGR1N": 1.0,
      "RACE": "WHITE",
      "RACEN": 1.0,
      "SEX": "F",
      "COMP24FL": "Y",
      "DSRAEFL": "",
      "SAFFL": "Y",
      "AVISIT": "Week 20",
      "AVISITN": 20.0,
      "ADY": 140.0,
      "ADT": 19864.0,
      "VISIT": "WEEK 20",
      "VISITNUM": 11.0,
      "PARAM": "Potassium (mmol/L) change from previous visit, relative to normal range",
      "PARAMCD": "_K",
      "PARAMN": 119.0,
      "PARCAT1": "CHEM",
      "AVAL": 0.2,
      "BASE": null,
      "CHG": null,
      "A1LO": null,
      "A1HI": null,
      "R2A1LO": null,
      "R2A1HI": null,
      "BR2A1LO": null,
      "BR2A1HI": null,
      "ANL01FL": "",
      "ALBTRVAL": 3.8,
      "ANRIND": "N",
      "BNRIND": "",
      "ABLFL": "",
      "AENTMTFL": "",
      "LBSEQ": 246.0,
      "LBNRIND": "NORMAL",
      "LBSTRESN": 4.3
    },
    {
      "STUDYID": "CDISCPILOT01",
      "SUBJID": "1015",
      "USUBJID": "01-701-1015",
      "TRTP": "Placebo",
      "TRTPN": 5.397605346934028e-79,
      "TRTA": "Placebo",
      "TRTAN": 5.397605346934028e-79,
      "TRTSDT": 19725.0,
      "TRTEDT": 19906.0,
      "AGE": 63.0,
      "AGEGR1": "<65",
      "AGEGR1N": 1.0,
      "RACE": "WHITE",
      "RACEN": 1.0,
      "SEX": "F",
      "COMP24FL": "Y",
      "DSRAEFL": "",
      "SAFFL": "Y",
      "AVISIT": "Week 20",
      "AVISITN": 20.0,
      "ADY": 140.0,
      "ADT": 19864.0,
      "VISIT": "WEEK 20",
      "VISITNUM": 11.0,
      "PARAM": "Chloride (mmol/L) change from previous visit, relative to normal range",
      "PARAMCD": "_CL",
      "PARAMN": 120.0,
      "PARCAT1": "CHEM",
      "AVAL": 0.6,
      "BASE": null,
      "CHG": null,
      "A1LO": null,
      "A1HI": null,
      "R2A1LO": null,
      "R2A1HI": null,
      "BR2A1LO": null,
      "BR2A1HI": null,
      "ANL01FL": "",
      "ALBTRVAL": 61.0,
      "ANRIND": "N",
      "BNRIND": "",
      "ABLFL": "",
      "AENTMTFL": "",
      "LBSEQ": 239.0,
      "LBNRIND": "NORMAL",
      "LBSTRESN": 108.0
    },
    {
      "STUDYID": "CDISCPILOT01",
      "SUBJID": "1015",
      "USUBJID": "01-701-1015",
      "TRTP": "Placebo",
      "TRTPN": 5.397605346934028e-79,
      "TRTA": "Placebo",
      "TRTAN": 5.397605346934028e-79,
      "TRTSDT": 19725.0,
      "TRTEDT": 19906.0,
      "AGE": 63.0,
      "AGEGR1": "<65",
      "AGEGR1N": 1.0,
      "RACE": "WHITE",
      "RACEN": 1.0,
      "SEX": "F",
      "COMP24FL": "Y",
      "DSRAEFL": "",
      "SAFFL": "Y",
      "AVISIT": "Week 20",
      "AVISITN": 20.0,
      "ADY": 140.0,
      "ADT": 19864.0,
      "VISIT": "WEEK 20",
      "VISITNUM": 11.0,
      "PARAM": "Bilirubin (umol/L) change from previous visit, relative to normal range",
      "PARAMCD": "_BILI",
      "PARAMN": 121.0,
      "PARCAT1": "CHEM",
      "AVAL": 5.397605346934028e-79,
      "BASE": null,
      "CHG": null,
      "A1LO": null,
      "A1HI": null,
      "R2A1LO": null,
      "R2A1HI": null,
      "BR2A1LO": null,
      "BR2A1HI": null,
      "ANL01FL": "",
      "ALBTRVAL": 24.66,
      "ANRIND": "N",
      "BNRIND": "",
      "ABLFL": "",
      "AENTMTFL": "",
      "LBSEQ": 234.0,
      "LBNRIND": "NORMAL",
      "LBSTRESN": 6.84
    },
    {
      "STUDYID": "CDISCPILOT01",
      "SUBJID": "1015",
      "USUBJID": "01-701-1015",
      "TRTP": "Placebo",
      "TRTPN": 5.397605346934028e-79,
      "TRTA": "Placebo",
      "TRTAN": 5.397605346934028e-79,
      "TRTSDT": 19725.0,
      "TRTEDT": 19906.0,
      "AGE": 63.0,
      "AGEGR1": "<65",
      "AGEGR1N": 1.0,
      "RACE": "WHITE",
      "RACEN": 1.0,
      "SEX": "F",
      "COMP24FL": "Y",
      "DSRAEFL": "",
      "SAFFL": "Y",
      "AVISIT": "Week 20",
      "AVISITN": 20.0,
      "ADY": 140.0,
      "ADT": 19864.0,
      "VISIT": "WEEK 20",
      "VISITNUM": 11.0,
      "PARAM": "Alkaline Phosphatase (U/L) change from previous visit, relative to normal range",
      "PARAMCD": "_ALP",
      "PARAMN": 122.0,
      "PARCAT1": "CHEM",
      "AVAL": 0.1,
      "BASE": null,
      "CHG": null,
      "A1LO": null,
      "A1HI": null,
      "R2A1LO": null,
      "R2A1HI": null,
      "BR2A1LO": null,
      "BR2A1HI": null,
      "ANL01FL": "",
      "ALBTRVAL": 127.5,
      "ANRIND": "N",
      "BNRIND": "",
      "ABLFL": "",
      "AENTMTFL": "",
      "LBSEQ": 230.0,
      "LBNRIND": "NORMAL",
      "LBSTRESN": 45.0
    },
    {
      "STUDYID": "CDISCPILOT01",
      "SUBJID": "1015",
      "USUBJID": "01-701-1015",
      "TRTP": "Placebo",
      "TRTPN": 5.397605346934028e-79,
      "TRTA": "Placebo",
      "TRTAN": 5.397605346934028e-79,
      "TRTSDT": 19725.0,
      "TRTEDT": 19906.0,
      "AGE": 63.0,
      "AGEGR1": "<65",
      "AGEGR1N": 1.0,
      "RACE": "WHITE",
      "RACEN": 1.0,
      "SEX": "F",
      "COMP24FL": "Y",
      "DSRAEFL": "",
      "SAFFL": "Y",
      "AVISIT": "Week 20",
      "AVISITN": 20.0,
      "ADY": 140.0,
      "ADT": 19864.0,
      "VISIT": "WEEK 20",
      "VISITNUM": 11.0,
      "PARAM": "Gamma Glutamyl Transferase (U/L) change from previous visit, relative to normal range",
      "PARAMCD": "_GGT",
      "PARAMN": 123.0,
      "PARCAT1": "CHEM",
      "AVAL": 0.1,
      "BASE": null,
      "CHG": null,
      "A1LO": null,
      "A1HI": null,
      "R2A1LO": null,
      "R2A1HI": null,
      "BR2A1LO": null,
      "BR2A1HI": null,
      "ANL01FL": "",
      "ALBTRVAL": 58.0,
      "ANRIND": "N",
      "BNRIND": "",
      "ABLFL": "",
      "AENTMTFL": "",
      "LBSEQ": 242.0,
      "LBNRIND": "NORMAL",
      "LBSTRESN": 17.0
    },
    {
      "STUDYID": "CDISCPILOT01",
      "SUBJID": "1015",
      "USUBJID": "01-701-1015",
      "TRTP": "Placebo",
      "TRTPN": 5.397605346934028e-79,
      "TRTA": "Placebo",
      "TRTAN": 5.397605346934028e-79,
      "TRTSDT": 19725.0,
      "TRTEDT": 19906.0,
      "AGE": 63.0,
      "AGEGR1": "<65",
      "AGEGR1N": 1.0,
      "RACE": "WHITE",
      "RACEN": 1.0,
      "SEX": "F",
      "COMP24FL": "Y",
      "DSRAEFL": "",
      "SAFFL": "Y",
      "AVISIT": "Week 20",
      "AVISITN": 20.0,
      "ADY": 140.0,
      "ADT": 19864.0,
      "VISIT": "WEEK 20",
      "VISITNUM": 11.0,
      "PARAM": "Alanine Aminotransferase (U/L) change from previous visit, relative to normal range",
      "PARAMCD": "_ALT",
      "PARAMN": 124.0,
      "PARCAT1": "CHEM",
      "AVAL": 0.3,
      "BASE": null,
      "CHG": null,
      "A1LO": null,
      "A1HI": null,
      "R2A1LO": null,
      "R2A1HI": null,
      "BR2A1LO": null,
      "BR2A1HI": null,
      "ANL01FL": "",
      "ALBTRVAL": 30.0,
      "ANRIND": "N",
      "BNRIND": "",
      "ABLFL": "",
      "AENTMTFL": "",
      "LBSEQ": 231.0,
      "LBNRIND": "NORMAL",
      "LBSTRESN": 21.0
    },
    {
      "STUDYID": "CDISCPILOT01",
      "SUBJID": "1015",
      "USUBJID": "01-701-1015",
      "TRTP": "Placebo",
      "TRTPN": 5.397605346934028e-79,
      "TRTA": "Placebo",
      "TRTAN": 5.397605346934028e-79,
      "TRTSDT": 19725.0,
      "TRTEDT": 19906.0,
      "AGE": 63.0,
      "AGEGR1": "<65",
      "AGEGR1N": 1.0,
      "RACE": "WHITE",
      "RACEN": 1.0,
      "SEX": "F",
      "COMP24FL": "Y",
      "DSRAEFL": "",
      "SAFFL": "Y",
      "AVISIT": "Week 20",
      "AVISITN": 20.0,
      "ADY": 140.0,
      "ADT": 19864.0,
      "VISIT": "WEEK 20",
      "VISITNUM": 11.0,
      "PARAM": "Aspartate Aminotransferase (U/L) change from previous visit, relative to normal range",
      "PARAMCD": "_AST",
      "PARAMN": 125.0,
      "PARCAT1": "CHEM",
      "AVAL": -0.3,
      "BASE": null,
      "CHG": null,
      "A1LO": null,
      "A1HI": null,
      "R2A1LO": null,
      "R2A1HI": null,
      "BR2A1LO": null,
      "BR2A1HI": null,
      "ANL01FL": "",
      "ALBTRVAL": 32.0,
      "ANRIND": "N",
      "BNRIND": "",
      "ABLFL": "",
      "AENTMTFL": "",
      "LBSEQ": 232.0,
      "LBNRIND": "NORMAL",
      "LBSTRESN": 19.0
    },
    {
      "STUDYID": "CDISCPILOT01",
      "SUBJID": "1015",
      "USUBJID": "01-701-1015",
      "TRTP": "Placebo",
      "TRTPN": 5.397605346934028e-79,
      "TRTA": "Placebo",
      "TRTAN": 5.397605346934028e-79,
      "TRTSDT": 19725.0,
      "TRTEDT": 19906.0,
      "AGE": 63.0,
      "AGEGR1": "<65",
      "AGEGR1N": 1.0,
      "RACE": "WHITE",
      "RACEN": 1.0,
      "SEX": "F",
      "COMP24FL": "Y",
      "DSRAEFL": "",
      "SAFFL": "Y",
      "AVISIT": "Week 20",
      "AVISITN": 20.0,
      "ADY": 140.0,
      "ADT": 19864.0,
      "VISIT": "WEEK 20",
      "VISITNUM": 11.0,
      "PARAM": "Blood Urea Nitrogen (mmol/L) change from previous visit, relative to normal range",
      "PARAMCD": "_BUN",
      "PARAMN": 126.0,
      "PARCAT1": "CHEM",
      "AVAL": 0.1,
      "BASE": null,
      "CHG": null,
      "A1LO": null,
      "A1HI": null,
      "R2A1LO": null,
      "R2A1HI": null,
      "BR2A1LO": null,
      "BR2A1HI": null,
      "ANL01FL": "",
      "ALBTRVAL": 8.972999999999999,
      "ANRIND": "N",
      "BNRIND": "",
      "ABLFL": "",
      "AENTMTFL": "",
      "LBSEQ": 235.0,
      "LBNRIND": "NORMAL",
      "LBSTRESN": 3.927
    },
    {
      "STUDYID": "CDISCPILOT01",
      "SUBJID": "1015",
      "USUBJID": "01-701-1015",
      "TRTP": "Placebo",
      "TRTPN": 5.397605346934028e-79,
      "TRTA": "Placebo",
      "TRTAN": 5.397605346934028e-79,
      "TRTSDT": 19725.0,
      "TRTEDT": 19906.0,
      "AGE": 63.0,
      "AGEGR1": "<65",
      "AGEGR1N": 1.0,
      "RACE": "WHITE",
      "RACEN": 1.0,
      "SEX": "F",
      "COMP24FL": "Y",
      "DSRAEFL": "",
      "SAFFL": "Y",
      "AVISIT": "Week 20",
      "AVISITN": 20.0,
      "ADY": 140.0,
      "ADT": 19864.0,
      "VISIT": "WEEK 20",
      "VISITNUM": 11.0,
      "PARAM": "Creatinine (umol/L) change from previous visit, relative to normal range",
      "PARAMCD": "_CREAT",
      "PARAMN": 127.0,
      "PARCAT1": "CHEM",
      "AVAL": -0.3,
      "BASE": null,
      "CHG": null,
      "A1LO": null,
      "A1HI": null,
      "R2A1LO": null,
      "R2A1HI": null,
      "BR2A1LO": null,
      "BR2A1HI": null,
      "ANL01FL": "",
      "ALBTRVAL": 106.44000000000001,
      "ANRIND": "N",
      "BNRIND": "",
      "ABLFL": "",
      "AENTMTFL": "",
      "LBSEQ": 240.0,
      "LBNRIND": "NORMAL",
      "LBSTRESN": 79.55999999999999
    },
    {
      "STUDYID": "CDISCPILOT01",
      "SUBJID": "1015",
      "USUBJID": "01-701-1015",
      "TRTP": "Placebo",
      "TRTPN": 5.397605346934028e-79,
      "TRTA": "Placebo",
      "TRTAN": 5.397605346934028e-79,
      "TRTSDT": 19725.0,
      "TRTEDT": 19906.0,
      "AGE": 63.0,
      "AGEGR1": "<65",
      "AGEGR1N": 1.0,
      "RACE": "WHITE",
      "RACEN": 1.0,
      "SEX": "F",
      "COMP24FL": "Y",
      "DSRAEFL": "",
      "SAFFL": "Y",
      "AVISIT": "Week 20",
      "AVISITN": 20.0,
      "ADY": 140.0,
      "ADT": 19864.0,
      "VISIT": "WEEK 20",
      "VISITNUM": 11.0,
      "PARAM": "Urate (umol/L) change from previous visit, relative to normal range",
      "PARAMCD": "_URATE",
      "PARAMN": 128.0,
      "PARCAT1": "CHEM",
      "AVAL": 0.2,
      "BASE": null,
      "CHG": null,
      "A1LO": null,
      "A1HI": null,
      "R2A1LO": null,
      "R2A1HI": null,
      "BR2A1LO": null,
      "BR2A1HI": null,
      "ANL01FL": "",
      "ALBTRVAL": 389.444,
      "ANRIND": "N",
      "BNRIND": "",
      "ABLFL": "",
      "AENTMTFL": "",
      "LBSEQ": 257.0,
      "LBNRIND": "NORMAL",
      "LBSTRESN": 279.556
    },
    {
      "STUDYID": "CDISCPILOT01",
      "SUBJID": "1015",
      "USUBJID": "01-701-1015",
      "TRTP": "Placebo",
      "TRTPN": 5.397605346934028e-79,
      "TRTA": "Placebo",
      "TRTAN": 5.397605346934028e-79,
      "TRTSDT": 19725.0,
      "TRTEDT": 19906.0,
      "AGE": 63.0,
      "AGEGR1": "<65",
      "AGEGR1N": 1.0,
      "RACE": "WHITE",
      "RACEN": 1.0,
      "SEX": "F",
      "COMP24FL": "Y",
      "DSRAEFL": "",
      "SAFFL": "Y",
      "AVISIT": "Week 20",
      "AVISITN": 20.0,
      "ADY": 140.0,
      "ADT": 19864.0,
      "VISIT": "WEEK 20",
      "VISITNUM": 11.0,
      "PARAM": "Phosphate (mmol/L) change from previous visit, relative to normal range",
      "PARAMCD": "_PHOS",
      "PARAMN": 129.0,
      "PARCAT1": "CHEM",
      "AVAL": -0.4,
      "BASE": null,
      "CHG": null,
      "A1LO": null,
      "A1HI": null,
      "R2A1LO": null,
      "R2A1HI": null,
      "BR2A1LO": null,
      "BR2A1HI": null,
      "ANL01FL": "Y",
      "ALBTRVAL": 1.3771399999999996,
      "ANRIND": "N",
      "BNRIND": "",
      "ABLFL": "",
      "AENTMTFL": "",
      "LBSEQ": 253.0,
      "LBNRIND": "NORMAL",
      "LBSTRESN": 1.09786
    },
    {
      "STUDYID": "CDISCPILOT01",
      "SUBJID": "1015",
      "USUBJID": "01-701-1015",
      "TRTP": "Placebo",
      "TRTPN": 5.397605346934028e-79,
      "TRTA": "Placebo",
      "TRTAN": 5.397605346934028e-79,
      "TRTSDT": 19725.0,
      "TRTEDT": 19906.0,
      "AGE": 63.0,
      "AGEGR1": "<65",
      "AGEGR1N": 1.0,
      "RACE": "WHITE",
      "RACEN": 1.0,
      "SEX": "F",
      "COMP24FL": "Y",
      "DSRAEFL": "",
      "SAFFL": "Y",
      "AVISIT": "Week 20",
      "AVISITN": 20.0,
      "ADY": 140.0,
      "ADT": 19864.0,
      "VISIT": "WEEK 20",
      "VISITNUM": 11.0,
      "PARAM": "Calcium (mmol/L) change from previous visit, relative to normal range",
      "PARAMCD": "_CA",
      "PARAMN": 130.0,
      "PARCAT1": "CHEM",
      "AVAL": -0.1,
      "BASE": null,
      "CHG": null,
      "A1LO": null,
      "A1HI": null,
      "R2A1LO": null,
      "R2A1HI": null,
      "BR2A1LO": null,
      "BR2A1HI": null,
      "ANL01FL": "",
      "ALBTRVAL": 1.6843499999999998,
      "ANRIND": "N",
      "BNRIND": "",
      "ABLFL": "",
      "AENTMTFL": "",
      "LBSEQ": 236.0,
      "LBNRIND": "NORMAL",
      "LBSTRESN": 2.1706499999999997
    },
    {
      "STUDYID": "CDISCPILOT01",
      "SUBJID": "1015",
      "USUBJID": "01-701-1015",
      "TRTP": "Placebo",
      "TRTPN": 5.397605346934028e-79,
      "TRTA": "Placebo",
      "TRTAN": 5.397605346934028e-79,
      "TRTSDT": 19725.0,
      "TRTEDT": 19906.0,
      "AGE": 63.0,
      "AGEGR1": "<65",
      "AGEGR1N": 1.0,
      "RACE": "WHITE",
      "RACEN": 1.0,
      "SEX": "F",
      "COMP24FL": "Y",
      "DSRAEFL": "",
      "SAFFL": "Y",
      "AVISIT": "Week 20",
      "AVISITN": 20.0,
      "ADY": 140.0,
      "ADT": 19864.0,
      "VISIT": "WEEK 20",
      "VISITNUM": 11.0,
      "PARAM": "Glucose (mmol/L) change from previous visit, relative to normal range",
      "PARAMCD": "_GLUC",
      "PARAMN": 131.0,
      "PARCAT1": "CHEM",
      "AVAL": 5.397605346934028e-79,
      "BASE": null,
      "CHG": null,
      "A1LO": null,
      "A1HI": null,
      "R2A1LO": null,
      "R2A1HI": null,
      "BR2A1LO": null,
      "BR2A1HI": null,
      "ANL01FL": "",
      "ALBTRVAL": 15.965119999999999,
      "ANRIND": "N",
      "BNRIND": "",
      "ABLFL": "",
      "AENTMTFL": "",
      "LBSEQ": 243.0,
      "LBNRIND": "NORMAL",
      "LBSTRESN": 4.88488
    },
    {
      "STUDYID": "CDISCPILOT01",
      "SUBJID": "1015",
      "USUBJID": "01-701-1015",
      "TRTP": "Placebo",
      "TRTPN": 5.397605346934028e-79,
      "TRTA": "Placebo",
      "TRTAN": 5.397605346934028e-79,
      "TRTSDT": 19725.0,
      "TRTEDT": 19906.0,
      "AGE": 63.0,
      "AGEGR1": "<65",
      "AGEGR1N": 1.0,
      "RACE": "WHITE",
      "RACEN": 1.0,
      "SEX": "F",
      "COMP24FL": "Y",
      "DSRAEFL": "",
      "SAFFL": "Y",
      "AVISIT": "Week 20",
      "AVISITN": 20.0,
      "ADY": 140.0,
      "ADT": 19864.0,
      "VISIT": "WEEK 20",
      "VISITNUM": 11.0,
      "PARAM": "Protein (g/L) change from previous visit, relative to normal range",
      "PARAMCD": "_PROT",
      "PARAMN": 132.0,
      "PARCAT1": "CHEM",
      "AVAL": 5.397605346934028e-79,
      "BASE": null,
      "CHG": null,
      "A1LO": null,
      "A1HI": null,
      "R2A1LO": null,
      "R2A1HI": null,
      "BR2A1LO": null,
      "BR2A1HI": null,
      "ANL01FL": "",
      "ALBTRVAL": 52.0,
      "ANRIND": "N",
      "BNRIND": "",
      "ABLFL": "",
      "AENTMTFL": "",
      "LBSEQ": 255.0,
      "LBNRIND": "NORMAL",
      "LBSTRESN": 68.0
    },
    {
      "STUDYID": "CDISCPILOT01",
      "SUBJID": "1015",
      "USUBJID": "01-701-1015",
      "TRTP": "Placebo",
      "TRTPN": 5.397605346934028e-79,
      "TRTA": "Placebo",
      "TRTAN": 5.397605346934028e-79,
      "TRTSDT": 19725.0,
      "TRTEDT": 19906.0,
      "AGE": 63.0,
      "AGEGR1": "<65",
      "AGEGR1N": 1.0,
      "RACE": "WHITE",
      "RACEN": 1.0,
      "SEX": "F",
      "COMP24FL": "Y",
      "DSRAEFL": "",
      "SAFFL": "Y",
      "AVISIT": "Week 20",
      "AVISITN": 20.0,
      "ADY": 140.0,
      "ADT": 19864.0,
      "VISIT": "WEEK 20",
      "VISITNUM": 11.0,
      "PARAM": "Albumin (g/L) change from previous visit, relative to normal range",
      "PARAMCD": "_ALB",
      "PARAMN": 133.0,
      "PARCAT1": "CHEM",
      "AVAL": 5.397605346934028e-79,
      "BASE": null,
      "CHG": null,
      "A1LO": null,
      "A1HI": null,
      "R2A1LO": null,
      "R2A1HI": null,
      "BR2A1LO": null,
      "BR2A1HI": null,
      "ANL01FL": "",
      "ALBTRVAL": 36.5,
      "ANRIND": "N",
      "BNRIND": "",
      "ABLFL": "",
      "AENTMTFL": "",
      "LBSEQ": 229.0,
      "LBNRIND": "NORMAL",
      "LBSTRESN": 37.0
    },
    {
      "STUDYID": "CDISCPILOT01",
      "SUBJID": "1015",
      "USUBJID": "01-701-1015",
      "TRTP": "Placebo",
      "TRTPN": 5.397605346934028e-79,
      "TRTA": "Placebo",
      "TRTAN": 5.397605346934028e-79,
      "TRTSDT": 19725.0,
      "TRTEDT": 19906.0,
      "AGE": 63.0,
      "AGEGR1": "<65",
      "AGEGR1N": 1.0,
      "RACE": "WHITE",
      "RACEN": 1.0,
      "SEX": "F",
      "COMP24FL": "Y",
      "DSRAEFL": "",
      "SAFFL": "Y",
      "AVISIT": "Week 20",
      "AVISITN": 20.0,
      "ADY": 140.0,
      "ADT": 19864.0,
      "VISIT": "WEEK 20",
      "VISITNUM": 11.0,
      "PARAM": "Cholesterol (mmol/L) change from previous visit, relative to normal range",
      "PARAMCD": "_CHOL",
      "PARAMN": 134.0,
      "PARCAT1": "CHEM",
      "AVAL": -0.1,
      "BASE": null,
      "CHG": null,
      "A1LO": null,
      "A1HI": null,
      "R2A1LO": null,
      "R2A1HI": null,
      "BR2A1LO": null,
      "BR2A1HI": null,
      "ANL01FL": "",
      "ALBTRVAL": 6.286980000000001,
      "ANRIND": "N",
      "BNRIND": "",
      "ABLFL": "",
      "AENTMTFL": "",
      "LBSEQ": 237.0,
      "LBNRIND": "NORMAL",
      "LBSTRESN": 5.35302
    },
    {
      "STUDYID": "CDISCPILOT01",
      "SUBJID": "1015",
      "USUBJID": "01-701-1015",
      "TRTP": "Placebo",
      "TRTPN": 5.397605346934028e-79,
      "TRTA": "Placebo",
      "TRTAN": 5.397605346934028e-79,
      "TRTSDT": 19725.0,
      "TRTEDT": 19906.0,
      "AGE": 63.0,
      "AGEGR1": "<65",
      "AGEGR1N": 1.0,
      "RACE": "WHITE",
      "RACEN": 1.0,
      "SEX": "F",
      "COMP24FL": "Y",
      "DSRAEFL": "",
      "SAFFL": "Y",
      "AVISIT": "Week 20",
      "AVISITN": 20.0,
      "ADY": 140.0,
      "ADT": 19864.0,
      "VISIT": "WEEK 20",
      "VISITNUM": 11.0,
      "PARAM": "Creatine Kinase (U/L) change from previous visit, relative to normal range",
      "PARAMCD": "_CK",
      "PARAMN": 135.0,
      "PARCAT1": "CHEM",
      "AVAL": 5.397605346934028e-79,
      "BASE": null,
      "CHG": null,
      "A1LO": null,
      "A1HI": null,
      "R2A1LO": null,
      "R2A1HI": null,
      "BR2A1LO": null,
      "BR2A1HI": null,
      "ANL01FL": "",
      "ALBTRVAL": 203.5,
      "ANRIND": "N",
      "BNRIND": "",
      "ABLFL": "",
      "AENTMTFL": "",
      "LBSEQ": 238.0,
      "LBNRIND": "NORMAL",
      "LBSTRESN": 50.0
    },
    {
      "STUDYID": "CDISCPILOT01",
      "SUBJID": "1015",
      "USUBJID": "01-701-1015",
      "TRTP": "Placebo",
      "TRTPN": 5.397605346934028e-79,
      "TRTA": "Placebo",
      "TRTAN": 5.397605346934028e-79,
      "TRTSDT": 19725.0,
      "TRTEDT": 19906.0,
      "AGE": 63.0,
      "AGEGR1": "<65",
      "AGEGR1N": 1.0,
      "RACE": "WHITE",
      "RACEN": 1.0,
      "SEX": "F",
      "COMP24FL": "Y",
      "DSRAEFL": "",
      "SAFFL": "Y",
      "AVISIT": "Week 24",
      "AVISITN": 24.0,
      "ADY": 168.0,
      "ADT": 19892.0,
      "VISIT": "WEEK 24",
      "VISITNUM": 12.0,
      "PARAM": "Sodium (mmol/L) change from previous visit, relative to normal range",
      "PARAMCD": "_SODIUM",
      "PARAMN": 118.0,
      "PARCAT1": "CHEM",
      "AVAL": -0.4,
      "BASE": null,
      "CHG": null,
      "A1LO": null,
      "A1HI": null,
      "R2A1LO": null,
      "R2A1HI": null,
      "BR2A1LO": null,
      "BR2A1HI": null,
      "ANL01FL": "",
      "ALBTRVAL": 77.5,
      "ANRIND": "N",
      "BNRIND": "",
      "ABLFL": "",
      "AENTMTFL": "Y",
      "LBSEQ": 284.0,
      "LBNRIND": "NORMAL",
      "LBSTRESN": 140.0
    },
    {
      "STUDYID": "CDISCPILOT01",
      "SUBJID": "1015",
      "USUBJID": "01-701-1015",
      "TRTP": "Placebo",
      "TRTPN": 5.397605346934028e-79,
      "TRTA": "Placebo",
      "TRTAN": 5.397605346934028e-79,
      "TRTSDT": 19725.0,
      "TRTEDT": 19906.0,
      "AGE": 63.0,
      "AGEGR1": "<65",
      "AGEGR1N": 1.0,
      "RACE": "WHITE",
      "RACEN": 1.0,
      "SEX": "F",
      "COMP24FL": "Y",
      "DSRAEFL": "",
      "SAFFL": "Y",
      "AVISIT": "End of Treatment",
      "AVISITN": 99.0,
      "ADY": 168.0,
      "ADT": 19892.0,
      "VISIT": "WEEK 24",
      "VISITNUM": 12.0,
      "PARAM": "Sodium (mmol/L) change from previous visit, relative to normal range",
      "PARAMCD": "_SODIUM",
      "PARAMN": 118.0,
      "PARCAT1": "CHEM",
      "AVAL": -0.4,
      "BASE": null,
      "CHG": null,
      "A1LO": null,
      "A1HI": null,
      "R2A1LO": null,
      "R2A1HI": null,
      "BR2A1LO": null,
      "BR2A1HI": null,
      "ANL01FL": "",
      "ALBTRVAL": 77.5,
      "ANRIND": "N",
      "BNRIND": "",
      "ABLFL": "",
      "AENTMTFL": "Y",
      "LBSEQ": 284.0,
      "LBNRIND": "NORMAL",
      "LBSTRESN": 140.0
    },
    {
      "STUDYID": "CDISCPILOT01",
      "SUBJID": "1015",
      "USUBJID": "01-701-1015",
      "TRTP": "Placebo",
      "TRTPN": 5.397605346934028e-79,
      "TRTA": "Placebo",
      "TRTAN": 5.397605346934028e-79,
      "TRTSDT": 19725.0,
      "TRTEDT": 19906.0,
      "AGE": 63.0,
      "AGEGR1": "<65",
      "AGEGR1N": 1.0,
      "RACE": "WHITE",
      "RACEN": 1.0,
      "SEX": "F",
      "COMP24FL": "Y",
      "DSRAEFL": "",
      "SAFFL": "Y",
      "AVISIT": "Week 24",
      "AVISITN": 24.0,
      "ADY": 168.0,
      "ADT": 19892.0,
      "VISIT": "WEEK 24",
      "VISITNUM": 12.0,
      "PARAM": "Potassium (mmol/L) change from previous visit, relative to normal range",
      "PARAMCD": "_K",
      "PARAMN": 119.0,
      "PARCAT1": "CHEM",
      "AVAL": -0.2,
      "BASE": null,
      "CHG": null,
      "A1LO": null,
      "A1HI": null,
      "R2A1LO": null,
      "R2A1HI": null,
      "BR2A1LO": null,
      "BR2A1HI": null,
      "ANL01FL": "",
      "ALBTRVAL": 4.0,
      "ANRIND": "N",
      "BNRIND": "",
      "ABLFL": "",
      "AENTMTFL": "Y",
      "LBSEQ": 277.0,
      "LBNRIND": "NORMAL",
      "LBSTRESN": 4.1
    },
    {
      "STUDYID": "CDISCPILOT01",
      "SUBJID": "1015",
      "USUBJID": "01-701-1015",
      "TRTP": "Placebo",
      "TRTPN": 5.397605346934028e-79,
      "TRTA": "Placebo",
      "TRTAN": 5.397605346934028e-79,
      "TRTSDT": 19725.0,
      "TRTEDT": 19906.0,
      "AGE": 63.0,
      "AGEGR1": "<65",
      "AGEGR1N": 1.0,
      "RACE": "WHITE",
      "RACEN": 1.0,
      "SEX": "F",
      "COMP24FL": "Y",
      "DSRAEFL": "",
      "SAFFL": "Y",
      "AVISIT": "End of Treatment",
      "AVISITN": 99.0,
      "ADY": 168.0,
      "ADT": 19892.0,
      "VISIT": "WEEK 24",
      "VISITNUM": 12.0,
      "PARAM": "Potassium (mmol/L) change from previous visit, relative to normal range",
      "PARAMCD": "_K",
      "PARAMN": 119.0,
      "PARCAT1": "CHEM",
      "AVAL": -0.2,
      "BASE": null,
      "CHG": null,
      "A1LO": null,
      "A1HI": null,
      "R2A1LO": null,
      "R2A1HI": null,
      "BR2A1LO": null,
      "BR2A1HI": null,
      "ANL01FL": "",
      "ALBTRVAL": 4.0,
      "ANRIND": "N",
      "BNRIND": "",
      "ABLFL": "",
      "AENTMTFL": "Y",
      "LBSEQ": 277.0,
      "LBNRIND": "NORMAL",
      "LBSTRESN": 4.1
    },
    {
      "STUDYID": "CDISCPILOT01",
      "SUBJID": "1015",
      "USUBJID": "01-701-1015",
      "TRTP": "Placebo",
      "TRTPN": 5.397605346934028e-79,
      "TRTA": "Placebo",
      "TRTAN": 5.397605346934028e-79,
      "TRTSDT": 19725.0,
      "TRTEDT": 19906.0,
      "AGE": 63.0,
      "AGEGR1": "<65",
      "AGEGR1N": 1.0,
      "RACE": "WHITE",
      "RACEN": 1.0,
      "SEX": "F",
      "COMP24FL": "Y",
      "DSRAEFL": "",
      "SAFFL": "Y",
      "AVISIT": "Week 24",
      "AVISITN": 24.0,
      "ADY": 168.0,
      "ADT": 19892.0,
      "VISIT": "WEEK 24",
      "VISITNUM": 12.0,
      "PARAM": "Chloride (mmol/L) change from previous visit, relative to normal range",
      "PARAMCD": "_CL",
      "PARAMN": 120.0,
      "PARCAT1": "CHEM",
      "AVAL": -0.6,
      "BASE": null,
      "CHG": null,
      "A1LO": null,
      "A1HI": null,
      "R2A1LO": null,
      "R2A1HI": null,
      "BR2A1LO": null,
      "BR2A1HI": null,
      "ANL01FL": "",
      "ALBTRVAL": 65.0,
      "ANRIND": "N",
      "BNRIND": "",
      "ABLFL": "",
      "AENTMTFL": "Y",
      "LBSEQ": 269.0,
      "LBNRIND": "NORMAL",
      "LBSTRESN": 103.0
    },
    {
      "STUDYID": "CDISCPILOT01",
      "SUBJID": "1015",
      "USUBJID": "01-701-1015",
      "TRTP": "Placebo",
      "TRTPN": 5.397605346934028e-79,
      "TRTA": "Placebo",
      "TRTAN": 5.397605346934028e-79,
      "TRTSDT": 19725.0,
      "TRTEDT": 19906.0,
      "AGE": 63.0,
      "AGEGR1": "<65",
      "AGEGR1N": 1.0,
      "RACE": "WHITE",
      "RACEN": 1.0,
      "SEX": "F",
      "COMP24FL": "Y",
      "DSRAEFL": "",
      "SAFFL": "Y",
      "AVISIT": "End of Treatment",
      "AVISITN": 99.0,
      "ADY": 168.0,
      "ADT": 19892.0,
      "VISIT": "WEEK 24",
      "VISITNUM": 12.0,
      "PARAM": "Chloride (mmol/L) change from previous visit, relative to normal range",
      "PARAMCD": "_CL",
      "PARAMN": 120.0,
      "PARCAT1": "CHEM",
      "AVAL": -0.6,
      "BASE": null,
      "CHG": null,
      "A1LO": null,
      "A1HI": null,
      "R2A1LO": null,
      "R2A1HI": null,
      "BR2A1LO": null,
      "BR2A1HI": null,
      "ANL01FL": "",
      "ALBTRVAL": 65.0,
      "ANRIND": "N",
      "BNRIND": "",
      "ABLFL": "",
      "AENTMTFL": "Y",
      "LBSEQ": 269.0,
      "LBNRIND": "NORMAL",
      "LBSTRESN": 103.0
    },
    {
      "STUDYID": "CDISCPILOT01",
      "SUBJID": "1015",
      "USUBJID": "01-701-1015",
      "TRTP": "Placebo",
      "TRTPN": 5.397605346934028e-79,
      "TRTA": "Placebo",
      "TRTAN": 5.397605346934028e-79,
      "TRTSDT": 19725.0,
      "TRTEDT": 19906.0,
      "AGE": 63.0,
      "AGEGR1": "<65",
      "AGEGR1N": 1.0,
      "RACE": "WHITE",
      "RACEN": 1.0,
      "SEX": "F",
      "COMP24FL": "Y",
      "DSRAEFL": "",
      "SAFFL": "Y",
      "AVISIT": "Week 24",
      "AVISITN": 24.0,
      "ADY": 168.0,
      "ADT": 19892.0,
      "VISIT": "WEEK 24",
      "VISITNUM": 12.0,
      "PARAM": "Bilirubin (umol/L) change from previous visit, relative to normal range",
      "PARAMCD": "_BILI",
      "PARAMN": 121.0,
      "PARCAT1": "CHEM",
      "AVAL": 5.397605346934028e-79,
      "BASE": null,
      "CHG": null,
      "A1LO": null,
      "A1HI": null,
      "R2A1LO": null,
      "R2A1HI": null,
      "BR2A1LO": null,
      "BR2A1HI": null,
      "ANL01FL": "",
      "ALBTRVAL": 24.66,
      "ANRIND": "N",
      "BNRIND": "",
      "ABLFL": "",
      "AENTMTFL": "Y",
      "LBSEQ": 264.0,
      "LBNRIND": "NORMAL",
      "LBSTRESN": 6.84
    },
    {
      "STUDYID": "CDISCPILOT01",
      "SUBJID": "1015",
      "USUBJID": "01-701-1015",
      "TRTP": "Placebo",
      "TRTPN": 5.397605346934028e-79,
      "TRTA": "Placebo",
      "TRTAN": 5.397605346934028e-79,
      "TRTSDT": 19725.0,
      "TRTEDT": 19906.0,
      "AGE": 63.0,
      "AGEGR1": "<65",
      "AGEGR1N": 1.0,
      "RACE": "WHITE",
      "RACEN": 1.0,
      "SEX": "F",
      "COMP24FL": "Y",
      "DSRAEFL": "",
      "SAFFL": "Y",
      "AVISIT": "End of Treatment",
      "AVISITN": 99.0,
      "ADY": 168.0,
      "ADT": 19892.0,
      "VISIT": "WEEK 24",
      "VISITNUM": 12.0,
      "PARAM": "Bilirubin (umol/L) change from previous visit, relative to normal range",
      "PARAMCD": "_BILI",
      "PARAMN": 121.0,
      "PARCAT1": "CHEM",
      "AVAL": 5.397605346934028e-79,
      "BASE": null,
      "CHG": null,
      "A1LO": null,
      "A1HI": null,
      "R2A1LO": null,
      "R2A1HI": null,
      "BR2A1LO": null,
      "BR2A1HI": null,
      "ANL01FL": "",
      "ALBTRVAL": 24.66,
      "ANRIND": "N",
      "BNRIND": "",
      "ABLFL": "",
      "AENTMTFL": "Y",
      "LBSEQ": 264.0,
      "LBNRIND": "NORMAL",
      "LBSTRESN": 6.84
    },
    {
      "STUDYID": "CDISCPILOT01",
      "SUBJID": "1015",
      "USUBJID": "01-701-1015",
      "TRTP": "Placebo",
      "TRTPN": 5.397605346934028e-79,
      "TRTA": "Placebo",
      "TRTAN": 5.397605346934028e-79,
      "TRTSDT": 19725.0,
      "TRTEDT": 19906.0,
      "AGE": 63.0,
      "AGEGR1": "<65",
      "AGEGR1N": 1.0,
      "RACE": "WHITE",
      "RACEN": 1.0,
      "SEX": "F",
      "COMP24FL": "Y",
      "DSRAEFL": "",
      "SAFFL": "Y",
      "AVISIT": "Week 24",
      "AVISITN": 24.0,
      "ADY": 168.0,
      "ADT": 19892.0,
      "VISIT": "WEEK 24",
      "VISITNUM": 12.0,
      "PARAM": "Alkaline Phosphatase (U/L) change from previous visit, relative to normal range",
      "PARAMCD": "_ALP",
      "PARAMN": 122.0,
      "PARCAT1": "CHEM",
      "AVAL": 5.397605346934028e-79,
      "BASE": null,
      "CHG": null,
      "A1LO": null,
      "A1HI": null,
      "R2A1LO": null,
      "R2A1HI": null,
      "BR2A1LO": null,
      "BR2A1HI": null,
      "ANL01FL": "",
      "ALBTRVAL": 126.5,
      "ANRIND": "N",
      "BNRIND": "",
      "ABLFL": "",
      "AENTMTFL": "Y",
      "LBSEQ": 260.0,
      "LBNRIND": "NORMAL",
      "LBSTRESN": 46.0
    },
    {
      "STUDYID": "CDISCPILOT01",
      "SUBJID": "1015",
      "USUBJID": "01-701-1015",
      "TRTP": "Placebo",
      "TRTPN": 5.397605346934028e-79,
      "TRTA": "Placebo",
      "TRTAN": 5.397605346934028e-79,
      "TRTSDT": 19725.0,
      "TRTEDT": 19906.0,
      "AGE": 63.0,
      "AGEGR1": "<65",
      "AGEGR1N": 1.0,
      "RACE": "WHITE",
      "RACEN": 1.0,
      "SEX": "F",
      "COMP24FL": "Y",
      "DSRAEFL": "",
      "SAFFL": "Y",
      "AVISIT": "End of Treatment",
      "AVISITN": 99.0,
      "ADY": 168.0,
      "ADT": 19892.0,
      "VISIT": "WEEK 24",
      "VISITNUM": 12.0,
      "PARAM": "Alkaline Phosphatase (U/L) change from previous visit, relative to normal range",
      "PARAMCD": "_ALP",
      "PARAMN": 122.0,
      "PARCAT1": "CHEM",
      "AVAL": 5.397605346934028e-79,
      "BASE": null,
      "CHG": null,
      "A1LO": null,
      "A1HI": null,
      "R2A1LO": null,
      "R2A1HI": null,
      "BR2A1LO": null,
      "BR2A1HI": null,
      "ANL01FL": "",
      "ALBTRVAL": 126.5,
      "ANRIND": "N",
      "BNRIND": "",
      "ABLFL": "",
      "AENTMTFL": "Y",
      "LBSEQ": 260.0,
      "LBNRIND": "NORMAL",
      "LBSTRESN": 46.0
    },
    {
      "STUDYID": "CDISCPILOT01",
      "SUBJID": "1015",
      "USUBJID": "01-701-1015",
      "TRTP": "Placebo",
      "TRTPN": 5.397605346934028e-79,
      "TRTA": "Placebo",
      "TRTAN": 5.397605346934028e-79,
      "TRTSDT": 19725.0,
      "TRTEDT": 19906.0,
      "AGE": 63.0,
      "AGEGR1": "<65",
      "AGEGR1N": 1.0,
      "RACE": "WHITE",
      "RACEN": 1.0,
      "SEX": "F",
      "COMP24FL": "Y",
      "DSRAEFL": "",
      "SAFFL": "Y",
      "AVISIT": "Week 24",
      "AVISITN": 24.0,
      "ADY": 168.0,
      "ADT": 19892.0,
      "VISIT": "WEEK 24",
      "VISITNUM": 12.0,
      "PARAM": "Gamma Glutamyl Transferase (U/L) change from previous visit, relative to normal range",
      "PARAMCD": "_GGT",
      "PARAMN": 123.0,
      "PARCAT1": "CHEM",
      "AVAL": 0.1,
      "BASE": null,
      "CHG": null,
      "A1LO": null,
      "A1HI": null,
      "R2A1LO": null,
      "R2A1HI": null,
      "BR2A1LO": null,
      "BR2A1HI": null,
      "ANL01FL": "",
      "ALBTRVAL": 55.0,
      "ANRIND": "N",
      "BNRIND": "",
      "ABLFL": "",
      "AENTMTFL": "Y",
      "LBSEQ": 273.0,
      "LBNRIND": "NORMAL",
      "LBSTRESN": 20.0
    },
    {
      "STUDYID": "CDISCPILOT01",
      "SUBJID": "1015",
      "USUBJID": "01-701-1015",
      "TRTP": "Placebo",
      "TRTPN": 5.397605346934028e-79,
      "TRTA": "Placebo",
      "TRTAN": 5.397605346934028e-79,
      "TRTSDT": 19725.0,
      "TRTEDT": 19906.0,
      "AGE": 63.0,
      "AGEGR1": "<65",
      "AGEGR1N": 1.0,
      "RACE": "WHITE",
      "RACEN": 1.0,
      "SEX": "F",
      "COMP24FL": "Y",
      "DSRAEFL": "",
      "SAFFL": "Y",
      "AVISIT": "End of Treatment",
      "AVISITN": 99.0,
      "ADY": 168.0,
      "ADT": 19892.0,
      "VISIT": "WEEK 24",
      "VISITNUM": 12.0,
      "PARAM": "Gamma Glutamyl Transferase (U/L) change from previous visit, relative to normal range",
      "PARAMCD": "_GGT",
      "PARAMN": 123.0,
      "PARCAT1": "CHEM",
      "AVAL": 0.1,
      "BASE": null,
      "CHG": null,
      "A1LO": null,
      "A1HI": null,
      "R2A1LO": null,
      "R2A1HI": null,
      "BR2A1LO": null,
      "BR2A1HI": null,
      "ANL01FL": "",
      "ALBTRVAL": 55.0,
      "ANRIND": "N",
      "BNRIND": "",
      "ABLFL": "",
      "AENTMTFL": "Y",
      "LBSEQ": 273.0,
      "LBNRIND": "NORMAL",
      "LBSTRESN": 20.0
    },
    {
      "STUDYID": "CDISCPILOT01",
      "SUBJID": "1015",
      "USUBJID": "01-701-1015",
      "TRTP": "Placebo",
      "TRTPN": 5.397605346934028e-79,
      "TRTA": "Placebo",
      "TRTAN": 5.397605346934028e-79,
      "TRTSDT": 19725.0,
      "TRTEDT": 19906.0,
      "AGE": 63.0,
      "AGEGR1": "<65",
      "AGEGR1N": 1.0,
      "RACE": "WHITE",
      "RACEN": 1.0,
      "SEX": "F",
      "COMP24FL": "Y",
      "DSRAEFL": "",
      "SAFFL": "Y",
      "AVISIT": "Week 24",
      "AVISITN": 24.0,
      "ADY": 168.0,
      "ADT": 19892.0,
      "VISIT": "WEEK 24",
      "VISITNUM": 12.0,
      "PARAM": "Alanine Aminotransferase (U/L) change from previous visit, relative to normal range",
      "PARAMCD": "_ALT",
      "PARAMN": 124.0,
      "PARCAT1": "CHEM",
      "AVAL": 0.1,
      "BASE": null,
      "CHG": null,
      "A1LO": null,
      "A1HI": null,
      "R2A1LO": null,
      "R2A1HI": null,
      "BR2A1LO": null,
      "BR2A1HI": null,
      "ANL01FL": "",
      "ALBTRVAL": 28.0,
      "ANRIND": "N",
      "BNRIND": "",
      "ABLFL": "",
      "AENTMTFL": "Y",
      "LBSEQ": 261.0,
      "LBNRIND": "NORMAL",
      "LBSTRESN": 23.0
    },
    {
      "STUDYID": "CDISCPILOT01",
      "SUBJID": "1015",
      "USUBJID": "01-701-1015",
      "TRTP": "Placebo",
      "TRTPN": 5.397605346934028e-79,
      "TRTA": "Placebo",
      "TRTAN": 5.397605346934028e-79,
      "TRTSDT": 19725.0,
      "TRTEDT": 19906.0,
      "AGE": 63.0,
      "AGEGR1": "<65",
      "AGEGR1N": 1.0,
      "RACE": "WHITE",
      "RACEN": 1.0,
      "SEX": "F",
      "COMP24FL": "Y",
      "DSRAEFL": "",
      "SAFFL": "Y",
      "AVISIT": "End of Treatment",
      "AVISITN": 99.0,
      "ADY": 168.0,
      "ADT": 19892.0,
      "VISIT": "WEEK 24",
      "VISITNUM": 12.0,
      "PARAM": "Alanine Aminotransferase (U/L) change from previous visit, relative to normal range",
      "PARAMCD": "_ALT",
      "PARAMN": 124.0,
      "PARCAT1": "CHEM",
      "AVAL": 0.1,
      "BASE": null,
      "CHG": null,
      "A1LO": null,
      "A1HI": null,
      "R2A1LO": null,
      "R2A1HI": null,
      "BR2A1LO": null,
      "BR2A1HI": null,
      "ANL01FL": "",
      "ALBTRVAL": 28.0,
      "ANRIND": "N",
      "BNRIND": "",
      "ABLFL": "",
      "AENTMTFL": "Y",
      "LBSEQ": 261.0,
      "LBNRIND": "NORMAL",
      "LBSTRESN": 23.0
    },
    {
      "STUDYID": "CDISCPILOT01",
      "SUBJID": "1015",
      "USUBJID": "01-701-1015",
      "TRTP": "Placebo",
      "TRTPN": 5.397605346934028e-79,
      "TRTA": "Placebo",
      "TRTAN": 5.397605346934028e-79,
      "TRTSDT": 19725.0,
      "TRTEDT": 19906.0,
      "AGE": 63.0,
      "AGEGR1": "<65",
      "AGEGR1N": 1.0,
      "RACE": "WHITE",
      "RACEN": 1.0,
      "SEX": "F",
      "COMP24FL": "Y",
      "DSRAEFL": "",
      "SAFFL": "Y",
      "AVISIT": "Week 24",
      "AVISITN": 24.0,
      "ADY": 168.0,
      "ADT": 19892.0,
      "VISIT": "WEEK 24",
      "VISITNUM": 12.0,
      "PARAM": "Aspartate Aminotransferase (U/L) change from previous visit, relative to normal range",
      "PARAMCD": "_AST",
      "PARAMN": 125.0,
      "PARCAT1": "CHEM",
      "AVAL": 0.3,
      "BASE": null,
      "CHG": null,
      "A1LO": null,
      "A1HI": null,
      "R2A1LO": null,
      "R2A1HI": null,
      "BR2A1LO": null,
      "BR2A1HI": null,
      "ANL01FL": "",
      "ALBTRVAL": 28.0,
      "ANRIND": "N",
      "BNRIND": "",
      "ABLFL": "",
      "AENTMTFL": "Y",
      "LBSEQ": 262.0,
      "LBNRIND": "NORMAL",
      "LBSTRESN": 23.0
    },
    {
      "STUDYID": "CDISCPILOT01",
      "SUBJID": "1015",
      "USUBJID": "01-701-1015",
      "TRTP": "Placebo",
      "TRTPN": 5.397605346934028e-79,
      "TRTA": "Placebo",
      "TRTAN": 5.397605346934028e-79,
      "TRTSDT": 19725.0,
      "TRTEDT": 19906.0,
      "AGE": 63.0,
      "AGEGR1": "<65",
      "AGEGR1N": 1.0,
      "RACE": "WHITE",
      "RACEN": 1.0,
      "SEX": "F",
      "COMP24FL": "Y",
      "DSRAEFL": "",
      "SAFFL": "Y",
      "AVISIT": "End of Treatment",
      "AVISITN": 99.0,
      "ADY": 168.0,
      "ADT": 19892.0,
      "VISIT": "WEEK 24",
      "VISITNUM": 12.0,
      "PARAM": "Aspartate Aminotransferase (U/L) change from previous visit, relative to normal range",
      "PARAMCD": "_AST",
      "PARAMN": 125.0,
      "PARCAT1": "CHEM",
      "AVAL": 0.3,
      "BASE": null,
      "CHG": null,
      "A1LO": null,
      "A1HI": null,
      "R2A1LO": null,
      "R2A1HI": null,
      "BR2A1LO": null,
      "BR2A1HI": null,
      "ANL01FL": "",
      "ALBTRVAL": 28.0,
      "ANRIND": "N",
      "BNRIND": "",
      "ABLFL": "",
      "AENTMTFL": "Y",
      "LBSEQ": 262.0,
      "LBNRIND": "NORMAL",
      "LBSTRESN": 23.0
    },
    {
      "STUDYID": "CDISCPILOT01",
      "SUBJID": "1015",
      "USUBJID": "01-701-1015",
      "TRTP": "Placebo",
      "TRTPN": 5.397605346934028e-79,
      "TRTA": "Placebo",
      "TRTAN": 5.397605346934028e-79,
      "TRTSDT": 19725.0,
      "TRTEDT": 19906.0,
      "AGE": 63.0,
      "AGEGR1": "<65",
      "AGEGR1N": 1.0,
      "RACE": "WHITE",
      "RACEN": 1.0,
      "SEX": "F",
      "COMP24FL": "Y",
      "DSRAEFL": "",
      "SAFFL": "Y",
      "AVISIT": "Week 24",
      "AVISITN": 24.0,
      "ADY": 168.0,
      "ADT": 19892.0,
      "VISIT": "WEEK 24",
      "VISITNUM": 12.0,
      "PARAM": "Blood Urea Nitrogen (mmol/L) change from previous visit, relative to normal range",
      "PARAMCD": "_BUN",
      "PARAMN": 126.0,
      "PARCAT1": "CHEM",
      "AVAL": 0.1,
      "BASE": null,
      "CHG": null,
      "A1LO": null,
      "A1HI": null,
      "R2A1LO": null,
      "R2A1HI": null,
      "BR2A1LO": null,
      "BR2A1HI": null,
      "ANL01FL": "",
      "ALBTRVAL": 8.616,
      "ANRIND": "N",
      "BNRIND": "",
      "ABLFL": "",
      "AENTMTFL": "Y",
      "LBSEQ": 265.0,
      "LBNRIND": "NORMAL",
      "LBSTRESN": 4.284
    },
    {
      "STUDYID": "CDISCPILOT01",
      "SUBJID": "1015",
      "USUBJID": "01-701-1015",
      "TRTP": "Placebo",
      "TRTPN": 5.397605346934028e-79,
      "TRTA": "Placebo",
      "TRTAN": 5.397605346934028e-79,
      "TRTSDT": 19725.0,
      "TRTEDT": 19906.0,
      "AGE": 63.0,
      "AGEGR1": "<65",
      "AGEGR1N": 1.0,
      "RACE": "WHITE",
      "RACEN": 1.0,
      "SEX": "F",
      "COMP24FL": "Y",
      "DSRAEFL": "",
      "SAFFL": "Y",
      "AVISIT": "End of Treatment",
      "AVISITN": 99.0,
      "ADY": 168.0,
      "ADT": 19892.0,
      "VISIT": "WEEK 24",
      "VISITNUM": 12.0,
      "PARAM": "Blood Urea Nitrogen (mmol/L) change from previous visit, relative to normal range",
      "PARAMCD": "_BUN",
      "PARAMN": 126.0,
      "PARCAT1": "CHEM",
      "AVAL": 0.1,
      "BASE": null,
      "CHG": null,
      "A1LO": null,
      "A1HI": null,
      "R2A1LO": null,
      "R2A1HI": null,
      "BR2A1LO": null,
      "BR2A1HI": null,
      "ANL01FL": "",
      "ALBTRVAL": 8.616,
      "ANRIND": "N",
      "BNRIND": "",
      "ABLFL": "",
      "AENTMTFL": "Y",
      "LBSEQ": 265.0,
      "LBNRIND": "NORMAL",
      "LBSTRESN": 4.284
    },
    {
      "STUDYID": "CDISCPILOT01",
      "SUBJID": "1015",
      "USUBJID": "01-701-1015",
      "TRTP": "Placebo",
      "TRTPN": 5.397605346934028e-79,
      "TRTA": "Placebo",
      "TRTAN": 5.397605346934028e-79,
      "TRTSDT": 19725.0,
      "TRTEDT": 19906.0,
      "AGE": 63.0,
      "AGEGR1": "<65",
      "AGEGR1N": 1.0,
      "RACE": "WHITE",
      "RACEN": 1.0,
      "SEX": "F",
      "COMP24FL": "Y",
      "DSRAEFL": "",
      "SAFFL": "Y",
      "AVISIT": "Week 24",
      "AVISITN": 24.0,
      "ADY": 168.0,
      "ADT": 19892.0,
      "VISIT": "WEEK 24",
      "VISITNUM": 12.0,
      "PARAM": "Creatinine (umol/L) change from previous visit, relative to normal range",
      "PARAMCD": "_CREAT",
      "PARAMN": 127.0,
      "PARCAT1": "CHEM",
      "AVAL": 5.397605346934028e-79,
      "BASE": null,
      "CHG": null,
      "A1LO": null,
      "A1HI": null,
      "R2A1LO": null,
      "R2A1HI": null,
      "BR2A1LO": null,
      "BR2A1HI": null,
      "ANL01FL": "",
      "ALBTRVAL": 106.44000000000001,
      "ANRIND": "N",
      "BNRIND": "",
      "ABLFL": "",
      "AENTMTFL": "Y",
      "LBSEQ": 271.0,
      "LBNRIND": "NORMAL",
      "LBSTRESN": 79.55999999999999
    },
    {
      "STUDYID": "CDISCPILOT01",
      "SUBJID": "1015",
      "USUBJID": "01-701-1015",
      "TRTP": "Placebo",
      "TRTPN": 5.397605346934028e-79,
      "TRTA": "Placebo",
      "TRTAN": 5.397605346934028e-79,
      "TRTSDT": 19725.0,
      "TRTEDT": 19906.0,
      "AGE": 63.0,
      "AGEGR1": "<65",
      "AGEGR1N": 1.0,
      "RACE": "WHITE",
      "RACEN": 1.0,
      "SEX": "F",
      "COMP24FL": "Y",
      "DSRAEFL": "",
      "SAFFL": "Y",
      "AVISIT": "End of Treatment",
      "AVISITN": 99.0,
      "ADY": 168.0,
      "ADT": 19892.0,
      "VISIT": "WEEK 24",
      "VISITNUM": 12.0,
      "PARAM": "Creatinine (umol/L) change from previous visit, relative to normal range",
      "PARAMCD": "_CREAT",
      "PARAMN": 127.0,
      "PARCAT1": "CHEM",
      "AVAL": 5.397605346934028e-79,
      "BASE": null,
      "CHG": null,
      "A1LO": null,
      "A1HI": null,
      "R2A1LO": null,
      "R2A1HI": null,
      "BR2A1LO": null,
      "BR2A1HI": null,
      "ANL01FL": "",
      "ALBTRVAL": 106.44000000000001,
      "ANRIND": "N",
      "BNRIND": "",
      "ABLFL": "",
      "AENTMTFL": "Y",
      "LBSEQ": 271.0,
      "LBNRIND": "NORMAL",
      "LBSTRESN": 79.55999999999999
    },
    {
      "STUDYID": "CDISCPILOT01",
      "SUBJID": "1015",
      "USUBJID": "01-701-1015",
      "TRTP": "Placebo",
      "TRTPN": 5.397605346934028e-79,
      "TRTA": "Placebo",
      "TRTAN": 5.397605346934028e-79,
      "TRTSDT": 19725.0,
      "TRTEDT": 19906.0,
      "AGE": 63.0,
      "AGEGR1": "<65",
      "AGEGR1N": 1.0,
      "RACE": "WHITE",
      "RACEN": 1.0,
      "SEX": "F",
      "COMP24FL": "Y",
      "DSRAEFL": "",
      "SAFFL": "Y",
      "AVISIT": "Week 24",
      "AVISITN": 24.0,
      "ADY": 168.0,
      "ADT": 19892.0,
      "VISIT": "WEEK 24",
      "VISITNUM": 12.0,
      "PARAM": "Urate (umol/L) change from previous visit, relative to normal range",
      "PARAMCD": "_URATE",
      "PARAMN": 128.0,
      "PARCAT1": "CHEM",
      "AVAL": 0.2,
      "BASE": null,
      "CHG": null,
      "A1LO": null,
      "A1HI": null,
      "R2A1LO": null,
      "R2A1HI": null,
      "BR2A1LO": null,
      "BR2A1HI": null,
      "ANL01FL": "",
      "ALBTRVAL": 365.652,
      "ANRIND": "N",
      "BNRIND": "",
      "ABLFL": "",
      "AENTMTFL": "Y",
      "LBSEQ": 291.0,
      "LBNRIND": "NORMAL",
      "LBSTRESN": 303.348
    },
    {
      "STUDYID": "CDISCPILOT01",
      "SUBJID": "1015",
      "USUBJID": "01-701-1015",
      "TRTP": "Placebo",
      "TRTPN": 5.397605346934028e-79,
      "TRTA": "Placebo",
      "TRTAN": 5.397605346934028e-79,
      "TRTSDT": 19725.0,
      "TRTEDT": 19906.0,
      "AGE": 63.0,
      "AGEGR1": "<65",
      "AGEGR1N": 1.0,
      "RACE": "WHITE",
      "RACEN": 1.0,
      "SEX": "F",
      "COMP24FL": "Y",
      "DSRAEFL": "",
      "SAFFL": "Y",
      "AVISIT": "End of Treatment",
      "AVISITN": 99.0,
      "ADY": 168.0,
      "ADT": 19892.0,
      "VISIT": "WEEK 24",
      "VISITNUM": 12.0,
      "PARAM": "Urate (umol/L) change from previous visit, relative to normal range",
      "PARAMCD": "_URATE",
      "PARAMN": 128.0,
      "PARCAT1": "CHEM",
      "AVAL": 0.2,
      "BASE": null,
      "CHG": null,
      "A1LO": null,
      "A1HI": null,
      "R2A1LO": null,
      "R2A1HI": null,
      "BR2A1LO": null,
      "BR2A1HI": null,
      "ANL01FL": "",
      "ALBTRVAL": 365.652,
      "ANRIND": "N",
      "BNRIND": "",
      "ABLFL": "",
      "AENTMTFL": "Y",
      "LBSEQ": 291.0,
      "LBNRIND": "NORMAL",
      "LBSTRESN": 303.348
    },
    {
      "STUDYID": "CDISCPILOT01",
      "SUBJID": "1015",
      "USUBJID": "01-701-1015",
      "TRTP": "Placebo",
      "TRTPN": 5.397605346934028e-79,
      "TRTA": "Placebo",
      "TRTAN": 5.397605346934028e-79,
      "TRTSDT": 19725.0,
      "TRTEDT": 19906.0,
      "AGE": 63.0,
      "AGEGR1": "<65",
      "AGEGR1N": 1.0,
      "RACE": "WHITE",
      "RACEN": 1.0,
      "SEX": "F",
      "COMP24FL": "Y",
      "DSRAEFL": "",
      "SAFFL": "Y",
      "AVISIT": "Week 24",
      "AVISITN": 24.0,
      "ADY": 168.0,
      "ADT": 19892.0,
      "VISIT": "WEEK 24",
      "VISITNUM": 12.0,
      "PARAM": "Phosphate (mmol/L) change from previous visit, relative to normal range",
      "PARAMCD": "_PHOS",
      "PARAMN": 129.0,
      "PARCAT1": "CHEM",
      "AVAL": 0.3,
      "BASE": null,
      "CHG": null,
      "A1LO": null,
      "A1HI": null,
      "R2A1LO": null,
      "R2A1HI": null,
      "BR2A1LO": null,
      "BR2A1HI": null,
      "ANL01FL": "",
      "ALBTRVAL": 1.2156899999999997,
      "ANRIND": "N",
      "BNRIND": "",
      "ABLFL": "",
      "AENTMTFL": "Y",
      "LBSEQ": 286.0,
      "LBNRIND": "NORMAL",
      "LBSTRESN": 1.25931
    },
    {
      "STUDYID": "CDISCPILOT01",
      "SUBJID": "1015",
      "USUBJID": "01-701-1015",
      "TRTP": "Placebo",
      "TRTPN": 5.397605346934028e-79,
      "TRTA": "Placebo",
      "TRTAN": 5.397605346934028e-79,
      "TRTSDT": 19725.0,
      "TRTEDT": 19906.0,
      "AGE": 63.0,
      "AGEGR1": "<65",
      "AGEGR1N": 1.0,
      "RACE": "WHITE",
      "RACEN": 1.0,
      "SEX": "F",
      "COMP24FL": "Y",
      "DSRAEFL": "",
      "SAFFL": "Y",
      "AVISIT": "End of Treatment",
      "AVISITN": 99.0,
      "ADY": 168.0,
      "ADT": 19892.0,
      "VISIT": "WEEK 24",
      "VISITNUM": 12.0,
      "PARAM": "Phosphate (mmol/L) change from previous visit, relative to normal range",
      "PARAMCD": "_PHOS",
      "PARAMN": 129.0,
      "PARCAT1": "CHEM",
      "AVAL": 0.3,
      "BASE": null,
      "CHG": null,
      "A1LO": null,
      "A1HI": null,
      "R2A1LO": null,
      "R2A1HI": null,
      "BR2A1LO": null,
      "BR2A1HI": null,
      "ANL01FL": "",
      "ALBTRVAL": 1.2156899999999997,
      "ANRIND": "N",
      "BNRIND": "",
      "ABLFL": "",
      "AENTMTFL": "Y",
      "LBSEQ": 286.0,
      "LBNRIND": "NORMAL",
      "LBSTRESN": 1.25931
    },
    {
      "STUDYID": "CDISCPILOT01",
      "SUBJID": "1015",
      "USUBJID": "01-701-1015",
      "TRTP": "Placebo",
      "TRTPN": 5.397605346934028e-79,
      "TRTA": "Placebo",
      "TRTAN": 5.397605346934028e-79,
      "TRTSDT": 19725.0,
