{
  "name": "ADLBHPV",
  "total_rows": 24966,
  "unique_subjects": 254,
  "columns": [
    {
      "name": "STUDYID",
      "type": "string"
    },
    {
      "name": "SUBJID",
      "type": "string"
    },
    {
      "name": "USUBJID",
      "type": "string"
    },
    {
      "name": "TRTP",
      "type": "string"
    },
    {
      "name": "TRTPN",
      "type": "number"
    },
    {
      "name": "TRTA",
      "type": "string"
    },
    {
      "name": "TRTAN",
      "type": "number"
    },
    {
      "name": "TRTSDT",
      "type": "number"
    },
    {
      "name": "TRTEDT",
      "type": "number"
    },
    {
      "name": "AGE",
      "type": "number"
    },
    {
      "name": "AGEGR1",
      "type": "string"
    },
    {
      "name": "AGEGR1N",
      "type": "number"
    },
    {
      "name": "RACE",
      "type": "string"
    },
    {
      "name": "RACEN",
      "type": "number"
    },
    {
      "name": "SEX",
      "type": "string"
    },
    {
      "name": "COMP24FL",
      "type": "string"
    },
    {
      "name": "DSRAEFL",
      "type": "string"
    },
    {
      "name": "SAFFL",
      "type": "string"
    },
    {
      "name": "AVISIT",
      "type": "string"
    },
    {
      "name": "AVISITN",
      "type": "number"
    },
    {
      "name": "ADY",
      "type": "number"
    },
    {
      "name": "ADT",
      "type": "number"
    },
    {
      "name": "VISIT",
      "type": "string"
    },
    {
      "name": "VISITNUM",
      "type": "number"
    },
    {
      "name": "PARAM",
      "type": "string"
    },
    {
      "name": "PARAMCD",
      "type": "string"
    },
    {
      "name": "PARAMN",
      "type": "number"
    },
    {
      "name": "PARCAT1",
      "type": "string"
    },
    {
      "name": "AVAL",
      "type": "number"
    },
    {
      "name": "BASE",
      "type": "string"
    },
    {
      "name": "CHG",
      "type": "string"
    },
    {
      "name": "A1LO",
      "type": "string"
    },
    {
      "name": "A1HI",
      "type": "string"
    },
    {
      "name": "R2A1LO",
      "type": "string"
    },
    {
      "name": "R2A1HI",
      "type": "string"
    },
    {
      "name": "BR2A1LO",
      "type": "string"
    },
    {
      "name": "BR2A1HI",
      "type": "string"
    },
    {
      "name": "ANL01FL",
      "type": "string"
    },
    {
      "name": "ALBTRVAL",
      "type": "number"
    },
    {
      "name": "ANRIND",
      "type": "string"
    },
    {
      "name": "BNRIND",
      "type": "string"
    },
    {
      "name": "ABLFL",
      "type": "string"
    },
    {
      "name": "AENTMTFL",
      "type": "string"
    },
    {
      "name": "LBSEQ",
      "type": "number"
    },
    {
      "name": "LBNRIND",
      "type": "string"
    },
    {
      "name": "LBSTRESN",
      "type": "number"
    }
  ],
  "rows": [
    {
      "STUDYID": "CDISCPILOT01",
      "SUBJID": "1015",
      "USUBJID": "01-701-1015",
      "TRTP": "Placebo",
      "TRTPN": 5.397605346934028e-79,
      "TRTA": "Placebo",
      "TRTAN": 5.397605346934028e-79,
      "TRTSDT": 19725.0,
      "TRTEDT": 19906.0,
      "AGE": 63.0,
      "AGEGR1": "<65",
      "AGEGR1N": 1.0,
      "RACE": "WHITE",
      "RACEN": 1.0,
      "SEX": "F",
      "COMP24FL": "Y",
      "DSRAEFL": "",
      "SAFFL": "Y",
      "AVISIT": "Baseline",
      "AVISITN": 5.397605346934028e-79,
      "ADY": -7.0,
      "ADT": 19718.0,
      "VISIT": "SCREENING 1",
      "VISITNUM": 1.0,
      "PARAM": "Hemoglobin (mmol/L) change from previous visit, relative to normal range",
      "PARAMCD": "_HGB",
      "PARAMN": 101.0,
      "PARCAT1": "HEM",
      "AVAL": NaN,
      "BASE": null,
      "CHG": null,
      "A1LO": null,
      "A1HI": null,
      "R2A1LO": null,
      "R2A1HI": null,
      "BR2A1LO": null,
      "BR2A1HI": null,
      "ANL01FL": "",
      "ALBTRVAL": 5.840419999999998,
      "ANRIND": "",
      "BNRIND": "",
      "ABLFL": "",
      "AENTMTFL": "",
      "LBSEQ": 19.0,
      "LBNRIND": "NORMAL",
      "LBSTRESN": 8.87458
    },
    {
      "STUDYID": "CDISCPILOT01",
      "SUBJID": "1015",
      "USUBJID": "01-701-1015",
      "TRTP": "Placebo",
      "TRTPN": 5.397605346934028e-79,
      "TRTA": "Placebo",
      "TRTAN": 5.397605346934028e-79,
      "TRTSDT": 19725.0,
      "TRTEDT": 19906.0,
      "AGE": 63.0,
      "AGEGR1": "<65",
      "AGEGR1N": 1.0,
      "RACE": "WHITE",
      "RACEN": 1.0,
      "SEX": "F",
      "COMP24FL": "Y",
      "DSRAEFL": "",
      "SAFFL": "Y",
      "AVISIT": "Baseline",
      "AVISITN": 5.397605346934028e-79,
      "ADY": -7.0,
      "ADT": 19718.0,
      "VISIT": "SCREENING 1",
      "VISITNUM": 1.0,
      "PARAM": "Hematocrit change from previous visit, relative to normal range",
      "PARAMCD": "_HCT",
      "PARAMN": 102.0,
      "PARCAT1": "HEM",
      "AVAL": NaN,
      "BASE": null,
      "CHG": null,
      "A1LO": null,
      "A1HI": null,
      "R2A1LO": null,
      "R2A1HI": null,
      "BR2A1LO": null,
      "BR2A1HI": null,
      "ANL01FL": "",
      "ALBTRVAL": 0.3,
      "ANRIND": "",
      "BNRIND": "",
      "ABLFL": "",
      "AENTMTFL": "",
      "LBSEQ": 18.0,
      "LBNRIND": "NORMAL",
      "LBSTRESN": 0.42
    },
    {
      "STUDYID": "CDISCPILOT01",
      "SUBJID": "1015",
      "USUBJID": "01-701-1015",
      "TRTP": "Placebo",
      "TRTPN": 5.397605346934028e-79,
      "TRTA": "Placebo",
      "TRTAN": 5.397605346934028e-79,
      "TRTSDT": 19725.0,
      "TRTEDT": 19906.0,
      "AGE": 63.0,
      "AGEGR1": "<65",
      "AGEGR1N": 1.0,
      "RACE": "WHITE",
      "RACEN": 1.0,
      "SEX": "F",
      "COMP24FL": "Y",
      "DSRAEFL": "",
      "SAFFL": "Y",
      "AVISIT": "Baseline",
      "AVISITN": 5.397605346934028e-79,
      "ADY": -7.0,
      "ADT": 19718.0,
      "VISIT": "SCREENING 1",
      "VISITNUM": 1.0,
      "PARAM": "Ery. Mean Corpuscular Volume (fL) change from previous visit, relative to normal range",
      "PARAMCD": "_MCV",
      "PARAMN": 103.0,
      "PARCAT1": "HEM",
      "AVAL": NaN,
      "BASE": null,
      "CHG": null,
      "A1LO": null,
      "A1HI": null,
      "R2A1LO": null,
      "R2A1HI": null,
      "BR2A1LO": null,
      "BR2A1HI": null,
      "ANL01FL": "",
      "ALBTRVAL": 70.0,
      "ANRIND": "",
      "BNRIND": "",
      "ABLFL": "",
      "AENTMTFL": "",
      "LBSEQ": 25.0,
      "LBNRIND": "NORMAL",
      "LBSTRESN": 80.0
    },
    {
      "STUDYID": "CDISCPILOT01",
      "SUBJID": "1015",
      "USUBJID": "01-701-1015",
      "TRTP": "Placebo",
      "TRTPN": 5.397605346934028e-79,
      "TRTA": "Placebo",
      "TRTAN": 5.397605346934028e-79,
      "TRTSDT": 19725.0,
      "TRTEDT": 19906.0,
      "AGE": 63.0,
      "AGEGR1": "<65",
      "AGEGR1N": 1.0,
      "RACE": "WHITE",
      "RACEN": 1.0,
      "SEX": "F",
      "COMP24FL": "Y",
      "DSRAEFL": "",
      "SAFFL": "Y",
      "AVISIT": "Baseline",
      "AVISITN": 5.397605346934028e-79,
      "ADY": -7.0,
      "ADT": 19718.0,
      "VISIT": "SCREENING 1",
      "VISITNUM": 1.0,
      "PARAM": "Ery. Mean Corpuscular Hemoglobin (fmol(Fe)) change from previous visit, relative to normal range",
      "PARAMCD": "_MCH",
      "PARAMN": 104.0,
      "PARCAT1": "HEM",
      "AVAL": NaN,
      "BASE": null,
      "CHG": null,
      "A1LO": null,
      "A1HI": null,
      "R2A1LO": null,
      "R2A1HI": null,
      "BR2A1LO": null,
      "BR2A1HI": null,
      "ANL01FL": "",
      "ALBTRVAL": 1.4743800000000002,
      "ANRIND": "",
      "BNRIND": "",
      "ABLFL": "",
      "AENTMTFL": "",
      "LBSEQ": 23.0,
      "LBNRIND": "NORMAL",
      "LBSTRESN": 1.67562
    },
    {
      "STUDYID": "CDISCPILOT01",
      "SUBJID": "1015",
      "USUBJID": "01-701-1015",
      "TRTP": "Placebo",
      "TRTPN": 5.397605346934028e-79,
      "TRTA": "Placebo",
      "TRTAN": 5.397605346934028e-79,
      "TRTSDT": 19725.0,
      "TRTEDT": 19906.0,
      "AGE": 63.0,
      "AGEGR1": "<65",
      "AGEGR1N": 1.0,
      "RACE": "WHITE",
      "RACEN": 1.0,
      "SEX": "F",
      "COMP24FL": "Y",
      "DSRAEFL": "",
      "SAFFL": "Y",
      "AVISIT": "Baseline",
      "AVISITN": 5.397605346934028e-79,
      "ADY": -7.0,
      "ADT": 19718.0,
      "VISIT": "SCREENING 1",
      "VISITNUM": 1.0,
      "PARAM": "Ery. Mean Corpuscular HGB Concentration (mmol/L) change from previous visit, relative to normal rang",
      "PARAMCD": "_MCHC",
      "PARAMN": 105.0,
      "PARCAT1": "HEM",
      "AVAL": NaN,
      "BASE": null,
      "CHG": null,
      "A1LO": null,
      "A1HI": null,
      "R2A1LO": null,
      "R2A1HI": null,
      "BR2A1LO": null,
      "BR2A1HI": null,
      "ANL01FL": "",
      "ALBTRVAL": 14.8996,
      "ANRIND": "",
      "BNRIND": "",
      "ABLFL": "",
      "AENTMTFL": "",
      "LBSEQ": 24.0,
      "LBNRIND": "NORMAL",
      "LBSTRESN": 21.1004
    },
    {
      "STUDYID": "CDISCPILOT01",
      "SUBJID": "1015",
      "USUBJID": "01-701-1015",
      "TRTP": "Placebo",
      "TRTPN": 5.397605346934028e-79,
      "TRTA": "Placebo",
      "TRTAN": 5.397605346934028e-79,
      "TRTSDT": 19725.0,
      "TRTEDT": 19906.0,
      "AGE": 63.0,
      "AGEGR1": "<65",
      "AGEGR1N": 1.0,
      "RACE": "WHITE",
      "RACEN": 1.0,
      "SEX": "F",
      "COMP24FL": "Y",
      "DSRAEFL": "",
      "SAFFL": "Y",
      "AVISIT": "Baseline",
      "AVISITN": 5.397605346934028e-79,
      "ADY": -7.0,
      "ADT": 19718.0,
      "VISIT": "SCREENING 1",
      "VISITNUM": 1.0,
      "PARAM": "Leukocytes (GI/L) change from previous visit, relative to normal range",
      "PARAMCD": "_WBC",
      "PARAMN": 106.0,
      "PARCAT1": "HEM",
      "AVAL": NaN,
      "BASE": null,
      "CHG": null,
      "A1LO": null,
      "A1HI": null,
      "R2A1LO": null,
      "R2A1HI": null,
      "BR2A1LO": null,
      "BR2A1HI": null,
      "ANL01FL": "",
      "ALBTRVAL": 10.269999999999998,
      "ANRIND": "",
      "BNRIND": "",
      "ABLFL": "",
      "AENTMTFL": "",
      "LBSEQ": 38.0,
      "LBNRIND": "NORMAL",
      "LBSTRESN": 5.779999999999999
    },
    {
      "STUDYID": "CDISCPILOT01",
      "SUBJID": "1015",
      "USUBJID": "01-701-1015",
      "TRTP": "Placebo",
      "TRTPN": 5.397605346934028e-79,
      "TRTA": "Placebo",
      "TRTAN": 5.397605346934028e-79,
      "TRTSDT": 19725.0,
      "TRTEDT": 19906.0,
      "AGE": 63.0,
      "AGEGR1": "<65",
      "AGEGR1N": 1.0,
      "RACE": "WHITE",
      "RACEN": 1.0,
      "SEX": "F",
      "COMP24FL": "Y",
      "DSRAEFL": "",
      "SAFFL": "Y",
      "AVISIT": "Baseline",
      "AVISITN": 5.397605346934028e-79,
      "ADY": -7.0,
      "ADT": 19718.0,
      "VISIT": "SCREENING 1",
      "VISITNUM": 1.0,
      "PARAM": "Lymphocytes (GI/L) change from previous visit, relative to normal range",
      "PARAMCD": "_LYM",
      "PARAMN": 107.0,
      "PARCAT1": "HEM",
      "AVAL": NaN,
      "BASE": null,
      "CHG": null,
      "A1LO": null,
      "A1HI": null,
      "R2A1LO": null,
      "R2A1HI": null,
      "BR2A1LO": null,
      "BR2A1HI": null,
      "ANL01FL": "",
      "ALBTRVAL": 2.39,
      "ANRIND": "",
      "BNRIND": "",
      "ABLFL": "",
      "AENTMTFL": "",
      "LBSEQ": 22.0,
      "LBNRIND": "NORMAL",
      "LBSTRESN": 2.11
    },
    {
      "STUDYID": "CDISCPILOT01",
      "SUBJID": "1015",
      "USUBJID": "01-701-1015",
      "TRTP": "Placebo",
      "TRTPN": 5.397605346934028e-79,
      "TRTA": "Placebo",
      "TRTAN": 5.397605346934028e-79,
      "TRTSDT": 19725.0,
      "TRTEDT": 19906.0,
      "AGE": 63.0,
      "AGEGR1": "<65",
      "AGEGR1N": 1.0,
      "RACE": "WHITE",
      "RACEN": 1.0,
      "SEX": "F",
      "COMP24FL": "Y",
      "DSRAEFL": "",
      "SAFFL": "Y",
      "AVISIT": "Baseline",
      "AVISITN": 5.397605346934028e-79,
      "ADY": -7.0,
      "ADT": 19718.0,
      "VISIT": "SCREENING 1",
      "VISITNUM": 1.0,
      "PARAM": "Monocytes (GI/L) change from previous visit, relative to normal range",
      "PARAMCD": "_MONO",
      "PARAMN": 108.0,
      "PARCAT1": "HEM",
      "AVAL": NaN,
      "BASE": null,
      "CHG": null,
      "A1LO": null,
      "A1HI": null,
      "R2A1LO": null,
      "R2A1HI": null,
      "BR2A1LO": null,
      "BR2A1HI": null,
      "ANL01FL": "",
      "ALBTRVAL": 1.16,
      "ANRIND": "",
      "BNRIND": "",
      "ABLFL": "",
      "AENTMTFL": "",
      "LBSEQ": 26.0,
      "LBNRIND": "NORMAL",
      "LBSTRESN": 0.22
    },
    {
      "STUDYID": "CDISCPILOT01",
      "SUBJID": "1015",
      "USUBJID": "01-701-1015",
      "TRTP": "Placebo",
      "TRTPN": 5.397605346934028e-79,
      "TRTA": "Placebo",
      "TRTAN": 5.397605346934028e-79,
      "TRTSDT": 19725.0,
      "TRTEDT": 19906.0,
      "AGE": 63.0,
      "AGEGR1": "<65",
      "AGEGR1N": 1.0,
      "RACE": "WHITE",
      "RACEN": 1.0,
      "SEX": "F",
      "COMP24FL": "Y",
      "DSRAEFL": "",
      "SAFFL": "Y",
      "AVISIT": "Baseline",
      "AVISITN": 5.397605346934028e-79,
      "ADY": -7.0,
      "ADT": 19718.0,
      "VISIT": "SCREENING 1",
      "VISITNUM": 1.0,
      "PARAM": "Eosinophils (GI/L) change from previous visit, relative to normal range",
      "PARAMCD": "_EOS",
      "PARAMN": 109.0,
      "PARCAT1": "HEM",
      "AVAL": NaN,
      "BASE": null,
      "CHG": null,
      "A1LO": null,
      "A1HI": null,
      "R2A1LO": null,
      "R2A1HI": null,
      "BR2A1LO": null,
      "BR2A1HI": null,
      "ANL01FL": "",
      "ALBTRVAL": 0.725,
      "ANRIND": "",
      "BNRIND": "",
      "ABLFL": "",
      "AENTMTFL": "",
      "LBSEQ": 15.0,
      "LBNRIND": "NORMAL",
      "LBSTRESN": 0.13
    },
    {
      "STUDYID": "CDISCPILOT01",
      "SUBJID": "1015",
      "USUBJID": "01-701-1015",
      "TRTP": "Placebo",
      "TRTPN": 5.397605346934028e-79,
      "TRTA": "Placebo",
      "TRTAN": 5.397605346934028e-79,
      "TRTSDT": 19725.0,
      "TRTEDT": 19906.0,
      "AGE": 63.0,
      "AGEGR1": "<65",
      "AGEGR1N": 1.0,
      "RACE": "WHITE",
      "RACEN": 1.0,
      "SEX": "F",
      "COMP24FL": "Y",
      "DSRAEFL": "",
      "SAFFL": "Y",
      "AVISIT": "Baseline",
      "AVISITN": 5.397605346934028e-79,
      "ADY": -7.0,
      "ADT": 19718.0,
      "VISIT": "SCREENING 1",
      "VISITNUM": 1.0,
      "PARAM": "Basophils (GI/L) change from previous visit, relative to normal range",
      "PARAMCD": "_BASO",
      "PARAMN": 110.0,
      "PARCAT1": "HEM",
      "AVAL": NaN,
      "BASE": null,
      "CHG": null,
      "A1LO": null,
      "A1HI": null,
      "R2A1LO": null,
      "R2A1HI": null,
      "BR2A1LO": null,
      "BR2A1HI": null,
      "ANL01FL": "",
      "ALBTRVAL": 0.25,
      "ANRIND": "",
      "BNRIND": "",
      "ABLFL": "",
      "AENTMTFL": "",
      "LBSEQ": 6.0,
      "LBNRIND": "NORMAL",
      "LBSTRESN": 0.049999999999999996
    },
    {
      "STUDYID": "CDISCPILOT01",
      "SUBJID": "1015",
      "USUBJID": "01-701-1015",
      "TRTP": "Placebo",
      "TRTPN": 5.397605346934028e-79,
      "TRTA": "Placebo",
      "TRTAN": 5.397605346934028e-79,
      "TRTSDT": 19725.0,
      "TRTEDT": 19906.0,
      "AGE": 63.0,
      "AGEGR1": "<65",
      "AGEGR1N": 1.0,
      "RACE": "WHITE",
      "RACEN": 1.0,
      "SEX": "F",
      "COMP24FL": "Y",
      "DSRAEFL": "",
      "SAFFL": "Y",
      "AVISIT": "Baseline",
      "AVISITN": 5.397605346934028e-79,
      "ADY": -7.0,
      "ADT": 19718.0,
      "VISIT": "SCREENING 1",
      "VISITNUM": 1.0,
      "PARAM": "Platelet (GI/L) change from previous visit, relative to normal range",
      "PARAMCD": "_PLAT",
      "PARAMN": 111.0,
      "PARCAT1": "HEM",
      "AVAL": NaN,
      "BASE": null,
      "CHG": null,
      "A1LO": null,
      "A1HI": null,
      "R2A1LO": null,
      "R2A1HI": null,
      "BR2A1LO": null,
      "BR2A1HI": null,
      "ANL01FL": "",
      "ALBTRVAL": 325.0,
      "ANRIND": "",
      "BNRIND": "",
      "ABLFL": "",
      "AENTMTFL": "",
      "LBSEQ": 30.0,
      "LBNRIND": "NORMAL",
      "LBSTRESN": 266.0
    },
    {
      "STUDYID": "CDISCPILOT01",
      "SUBJID": "1015",
      "USUBJID": "01-701-1015",
      "TRTP": "Placebo",
      "TRTPN": 5.397605346934028e-79,
      "TRTA": "Placebo",
      "TRTAN": 5.397605346934028e-79,
      "TRTSDT": 19725.0,
      "TRTEDT": 19906.0,
      "AGE": 63.0,
      "AGEGR1": "<65",
      "AGEGR1N": 1.0,
      "RACE": "WHITE",
      "RACEN": 1.0,
      "SEX": "F",
      "COMP24FL": "Y",
      "DSRAEFL": "",
      "SAFFL": "Y",
      "AVISIT": "Baseline",
      "AVISITN": 5.397605346934028e-79,
      "ADY": -7.0,
      "ADT": 19718.0,
      "VISIT": "SCREENING 1",
      "VISITNUM": 1.0,
      "PARAM": "Erythrocytes (TI/L) change from previous visit, relative to normal range",
      "PARAMCD": "_RBC",
      "PARAMN": 112.0,
      "PARCAT1": "HEM",
      "AVAL": NaN,
      "BASE": null,
      "CHG": null,
      "A1LO": null,
      "A1HI": null,
      "R2A1LO": null,
      "R2A1HI": null,
      "BR2A1LO": null,
      "BR2A1HI": null,
      "ANL01FL": "",
      "ALBTRVAL": 3.3499999999999996,
      "ANRIND": "",
      "BNRIND": "",
      "ABLFL": "",
      "AENTMTFL": "",
      "LBSEQ": 32.0,
      "LBNRIND": "NORMAL",
      "LBSTRESN": 5.3
    },
    {
      "STUDYID": "CDISCPILOT01",
      "SUBJID": "1015",
      "USUBJID": "01-701-1015",
      "TRTP": "Placebo",
      "TRTPN": 5.397605346934028e-79,
      "TRTA": "Placebo",
      "TRTAN": 5.397605346934028e-79,
      "TRTSDT": 19725.0,
      "TRTEDT": 19906.0,
      "AGE": 63.0,
      "AGEGR1": "<65",
      "AGEGR1N": 1.0,
      "RACE": "WHITE",
      "RACEN": 1.0,
      "SEX": "F",
      "COMP24FL": "Y",
      "DSRAEFL": "",
      "SAFFL": "Y",
      "AVISIT": "Baseline",
      "AVISITN": 5.397605346934028e-79,
      "ADY": -7.0,
      "ADT": 19718.0,
      "VISIT": "SCREENING 1",
      "VISITNUM": 1.0,
      "PARAM": "Anisocytes change from previous visit, relative to normal range",
      "PARAMCD": "_ANISO",
      "PARAMN": 113.0,
      "PARCAT1": "HEM",
      "AVAL": NaN,
      "BASE": null,
      "CHG": null,
      "A1LO": null,
      "A1HI": null,
      "R2A1LO": null,
      "R2A1HI": null,
      "BR2A1LO": null,
      "BR2A1HI": null,
      "ANL01FL": "",
      "ALBTRVAL": NaN,
      "ANRIND": "",
      "BNRIND": "",
      "ABLFL": "",
      "AENTMTFL": "",
      "LBSEQ": 4.0,
      "LBNRIND": "ABNORMAL",
      "LBSTRESN": 1.0
    },
    {
      "STUDYID": "CDISCPILOT01",
      "SUBJID": "1015",
      "USUBJID": "01-701-1015",
      "TRTP": "Placebo",
      "TRTPN": 5.397605346934028e-79,
      "TRTA": "Placebo",
      "TRTAN": 5.397605346934028e-79,
      "TRTSDT": 19725.0,
      "TRTEDT": 19906.0,
      "AGE": 63.0,
      "AGEGR1": "<65",
      "AGEGR1N": 1.0,
      "RACE": "WHITE",
      "RACEN": 1.0,
      "SEX": "F",
      "COMP24FL": "Y",
      "DSRAEFL": "",
      "SAFFL": "Y",
      "AVISIT": "Week 2",
      "AVISITN": 2.0,
      "ADY": 15.0,
      "ADT": 19739.0,
      "VISIT": "WEEK 2",
      "VISITNUM": 4.0,
      "PARAM": "Hemoglobin (mmol/L) change from previous visit, relative to normal range",
      "PARAMCD": "_HGB",
      "PARAMN": 101.0,
      "PARCAT1": "HEM",
      "AVAL": 5.397605346934028e-79,
      "BASE": null,
      "CHG": null,
      "A1LO": null,
      "A1HI": null,
      "R2A1LO": null,
      "R2A1HI": null,
      "BR2A1LO": null,
      "BR2A1HI": null,
      "ANL01FL": "",
      "ALBTRVAL": 5.840419999999998,
      "ANRIND": "N",
      "BNRIND": "",
      "ABLFL": "",
      "AENTMTFL": "",
      "LBSEQ": 56.0,
      "LBNRIND": "NORMAL",
      "LBSTRESN": 8.87458
    },
    {
      "STUDYID": "CDISCPILOT01",
      "SUBJID": "1015",
      "USUBJID": "01-701-1015",
      "TRTP": "Placebo",
      "TRTPN": 5.397605346934028e-79,
      "TRTA": "Placebo",
      "TRTAN": 5.397605346934028e-79,
      "TRTSDT": 19725.0,
      "TRTEDT": 19906.0,
      "AGE": 63.0,
      "AGEGR1": "<65",
      "AGEGR1N": 1.0,
      "RACE": "WHITE",
      "RACEN": 1.0,
      "SEX": "F",
      "COMP24FL": "Y",
      "DSRAEFL": "",
      "SAFFL": "Y",
      "AVISIT": "Week 2",
      "AVISITN": 2.0,
      "ADY": 15.0,
      "ADT": 19739.0,
      "VISIT": "WEEK 2",
      "VISITNUM": 4.0,
      "PARAM": "Hematocrit change from previous visit, relative to normal range",
      "PARAMCD": "_HCT",
      "PARAMN": 102.0,
      "PARCAT1": "HEM",
      "AVAL": 0.1,
      "BASE": null,
      "CHG": null,
      "A1LO": null,
      "A1HI": null,
      "R2A1LO": null,
      "R2A1HI": null,
      "BR2A1LO": null,
      "BR2A1HI": null,
      "ANL01FL": "",
      "ALBTRVAL": 0.29,
      "ANRIND": "N",
      "BNRIND": "",
      "ABLFL": "",
      "AENTMTFL": "",
      "LBSEQ": 55.0,
      "LBNRIND": "NORMAL",
      "LBSTRESN": 0.43
    },
    {
      "STUDYID": "CDISCPILOT01",
      "SUBJID": "1015",
      "USUBJID": "01-701-1015",
      "TRTP": "Placebo",
      "TRTPN": 5.397605346934028e-79,
      "TRTA": "Placebo",
      "TRTAN": 5.397605346934028e-79,
      "TRTSDT": 19725.0,
      "TRTEDT": 19906.0,
      "AGE": 63.0,
      "AGEGR1": "<65",
      "AGEGR1N": 1.0,
      "RACE": "WHITE",
      "RACEN": 1.0,
      "SEX": "F",
      "COMP24FL": "Y",
      "DSRAEFL": "",
      "SAFFL": "Y",
      "AVISIT": "Week 2",
      "AVISITN": 2.0,
      "ADY": 15.0,
      "ADT": 19739.0,
      "VISIT": "WEEK 2",
      "VISITNUM": 4.0,
      "PARAM": "Ery. Mean Corpuscular Volume (fL) change from previous visit, relative to normal range",
      "PARAMCD": "_MCV",
      "PARAMN": 103.0,
      "PARCAT1": "HEM",
      "AVAL": 0.1,
      "BASE": null,
      "CHG": null,
      "A1LO": null,
      "A1HI": null,
      "R2A1LO": null,
      "R2A1HI": null,
      "BR2A1LO": null,
      "BR2A1HI": null,
      "ANL01FL": "",
      "ALBTRVAL": 69.0,
      "ANRIND": "N",
      "BNRIND": "",
      "ABLFL": "",
      "AENTMTFL": "",
      "LBSEQ": 62.0,
      "LBNRIND": "NORMAL",
      "LBSTRESN": 81.0
    },
    {
      "STUDYID": "CDISCPILOT01",
      "SUBJID": "1015",
      "USUBJID": "01-701-1015",
      "TRTP": "Placebo",
      "TRTPN": 5.397605346934028e-79,
      "TRTA": "Placebo",
      "TRTAN": 5.397605346934028e-79,
      "TRTSDT": 19725.0,
      "TRTEDT": 19906.0,
      "AGE": 63.0,
      "AGEGR1": "<65",
      "AGEGR1N": 1.0,
      "RACE": "WHITE",
      "RACEN": 1.0,
      "SEX": "F",
      "COMP24FL": "Y",
      "DSRAEFL": "",
      "SAFFL": "Y",
      "AVISIT": "Week 2",
      "AVISITN": 2.0,
      "ADY": 15.0,
      "ADT": 19739.0,
      "VISIT": "WEEK 2",
      "VISITNUM": 4.0,
      "PARAM": "Ery. Mean Corpuscular Hemoglobin (fmol(Fe)) change from previous visit, relative to normal range",
      "PARAMCD": "_MCH",
      "PARAMN": 104.0,
      "PARCAT1": "HEM",
      "AVAL": 5.397605346934028e-79,
      "BASE": null,
      "CHG": null,
      "A1LO": null,
      "A1HI": null,
      "R2A1LO": null,
      "R2A1HI": null,
      "BR2A1LO": null,
      "BR2A1HI": null,
      "ANL01FL": "",
      "ALBTRVAL": 1.4743800000000002,
      "ANRIND": "N",
      "BNRIND": "",
      "ABLFL": "",
      "AENTMTFL": "",
      "LBSEQ": 60.0,
      "LBNRIND": "NORMAL",
      "LBSTRESN": 1.67562
    },
    {
      "STUDYID": "CDISCPILOT01",
      "SUBJID": "1015",
      "USUBJID": "01-701-1015",
      "TRTP": "Placebo",
      "TRTPN": 5.397605346934028e-79,
      "TRTA": "Placebo",
      "TRTAN": 5.397605346934028e-79,
      "TRTSDT": 19725.0,
      "TRTEDT": 19906.0,
      "AGE": 63.0,
      "AGEGR1": "<65",
      "AGEGR1N": 1.0,
      "RACE": "WHITE",
      "RACEN": 1.0,
      "SEX": "F",
      "COMP24FL": "Y",
      "DSRAEFL": "",
      "SAFFL": "Y",
      "AVISIT": "Week 2",
      "AVISITN": 2.0,
      "ADY": 15.0,
      "ADT": 19739.0,
      "VISIT": "WEEK 2",
      "VISITNUM": 4.0,
      "PARAM": "Ery. Mean Corpuscular HGB Concentration (mmol/L) change from previous visit, relative to normal rang",
      "PARAMCD": "_MCHC",
      "PARAMN": 105.0,
      "PARCAT1": "HEM",
      "AVAL": -0.2,
      "BASE": null,
      "CHG": null,
      "A1LO": null,
      "A1HI": null,
      "R2A1LO": null,
      "R2A1HI": null,
      "BR2A1LO": null,
      "BR2A1HI": null,
      "ANL01FL": "",
      "ALBTRVAL": 15.520199999999999,
      "ANRIND": "N",
      "BNRIND": "",
      "ABLFL": "",
      "AENTMTFL": "",
      "LBSEQ": 61.0,
      "LBNRIND": "NORMAL",
      "LBSTRESN": 20.4798
    },
    {
      "STUDYID": "CDISCPILOT01",
      "SUBJID": "1015",
      "USUBJID": "01-701-1015",
      "TRTP": "Placebo",
      "TRTPN": 5.397605346934028e-79,
      "TRTA": "Placebo",
      "TRTAN": 5.397605346934028e-79,
      "TRTSDT": 19725.0,
      "TRTEDT": 19906.0,
      "AGE": 63.0,
      "AGEGR1": "<65",
      "AGEGR1N": 1.0,
      "RACE": "WHITE",
      "RACEN": 1.0,
      "SEX": "F",
      "COMP24FL": "Y",
      "DSRAEFL": "",
      "SAFFL": "Y",
      "AVISIT": "Week 2",
      "AVISITN": 2.0,
      "ADY": 15.0,
      "ADT": 19739.0,
      "VISIT": "WEEK 2",
      "VISITNUM": 4.0,
      "PARAM": "Leukocytes (GI/L) change from previous visit, relative to normal range",
      "PARAMCD": "_WBC",
      "PARAMN": 106.0,
      "PARCAT1": "HEM",
      "AVAL": -0.1,
      "BASE": null,
      "CHG": null,
      "A1LO": null,
      "A1HI": null,
      "R2A1LO": null,
      "R2A1HI": null,
      "BR2A1LO": null,
      "BR2A1HI": null,
      "ANL01FL": "",
      "ALBTRVAL": 10.719999999999997,
      "ANRIND": "N",
      "BNRIND": "",
      "ABLFL": "",
      "AENTMTFL": "",
      "LBSEQ": 73.0,
      "LBNRIND": "NORMAL",
      "LBSTRESN": 5.33
    },
    {
      "STUDYID": "CDISCPILOT01",
      "SUBJID": "1015",
      "USUBJID": "01-701-1015",
      "TRTP": "Placebo",
      "TRTPN": 5.397605346934028e-79,
      "TRTA": "Placebo",
      "TRTAN": 5.397605346934028e-79,
      "TRTSDT": 19725.0,
      "TRTEDT": 19906.0,
      "AGE": 63.0,
      "AGEGR1": "<65",
      "AGEGR1N": 1.0,
      "RACE": "WHITE",
      "RACEN": 1.0,
      "SEX": "F",
      "COMP24FL": "Y",
      "DSRAEFL": "",
      "SAFFL": "Y",
      "AVISIT": "Week 2",
      "AVISITN": 2.0,
      "ADY": 15.0,
      "ADT": 19739.0,
      "VISIT": "WEEK 2",
      "VISITNUM": 4.0,
      "PARAM": "Lymphocytes (GI/L) change from previous visit, relative to normal range",
      "PARAMCD": "_LYM",
      "PARAMN": 107.0,
      "PARCAT1": "HEM",
      "AVAL": -0.1,
      "BASE": null,
      "CHG": null,
      "A1LO": null,
      "A1HI": null,
      "R2A1LO": null,
      "R2A1HI": null,
      "BR2A1LO": null,
      "BR2A1HI": null,
      "ANL01FL": "",
      "ALBTRVAL": 2.52,
      "ANRIND": "N",
      "BNRIND": "",
      "ABLFL": "",
      "AENTMTFL": "",
      "LBSEQ": 59.0,
      "LBNRIND": "NORMAL",
      "LBSTRESN": 1.98
    },
    {
      "STUDYID": "CDISCPILOT01",
      "SUBJID": "1015",
      "USUBJID": "01-701-1015",
      "TRTP": "Placebo",
      "TRTPN": 5.397605346934028e-79,
      "TRTA": "Placebo",
      "TRTAN": 5.397605346934028e-79,
      "TRTSDT": 19725.0,
      "TRTEDT": 19906.0,
      "AGE": 63.0,
      "AGEGR1": "<65",
      "AGEGR1N": 1.0,
      "RACE": "WHITE",
      "RACEN": 1.0,
      "SEX": "F",
      "COMP24FL": "Y",
      "DSRAEFL": "",
      "SAFFL": "Y",
      "AVISIT": "Week 2",
      "AVISITN": 2.0,
      "ADY": 15.0,
      "ADT": 19739.0,
      "VISIT": "WEEK 2",
      "VISITNUM": 4.0,
      "PARAM": "Monocytes (GI/L) change from previous visit, relative to normal range",
      "PARAMCD": "_MONO",
      "PARAMN": 108.0,
      "PARCAT1": "HEM",
      "AVAL": 0.1,
      "BASE": null,
      "CHG": null,
      "A1LO": null,
      "A1HI": null,
      "R2A1LO": null,
      "R2A1HI": null,
      "BR2A1LO": null,
      "BR2A1HI": null,
      "ANL01FL": "",
      "ALBTRVAL": 1.1199999999999999,
      "ANRIND": "N",
      "BNRIND": "",
      "ABLFL": "",
      "AENTMTFL": "",
      "LBSEQ": 63.0,
      "LBNRIND": "NORMAL",
      "LBSTRESN": 0.25999999999999995
    },
    {
      "STUDYID": "CDISCPILOT01",
      "SUBJID": "1015",
      "USUBJID": "01-701-1015",
      "TRTP": "Placebo",
      "TRTPN": 5.397605346934028e-79,
      "TRTA": "Placebo",
      "TRTAN": 5.397605346934028e-79,
      "TRTSDT": 19725.0,
      "TRTEDT": 19906.0,
      "AGE": 63.0,
      "AGEGR1": "<65",
      "AGEGR1N": 1.0,
      "RACE": "WHITE",
      "RACEN": 1.0,
      "SEX": "F",
      "COMP24FL": "Y",
      "DSRAEFL": "",
      "SAFFL": "Y",
      "AVISIT": "Week 2",
      "AVISITN": 2.0,
      "ADY": 15.0,
      "ADT": 19739.0,
      "VISIT": "WEEK 2",
      "VISITNUM": 4.0,
      "PARAM": "Eosinophils (GI/L) change from previous visit, relative to normal range",
      "PARAMCD": "_EOS",
      "PARAMN": 109.0,
      "PARCAT1": "HEM",
      "AVAL": -0.2,
      "BASE": null,
      "CHG": null,
      "A1LO": null,
      "A1HI": null,
      "R2A1LO": null,
      "R2A1HI": null,
      "BR2A1LO": null,
      "BR2A1HI": null,
      "ANL01FL": "Y",
      "ALBTRVAL": 0.775,
      "ANRIND": "N",
      "BNRIND": "",
      "ABLFL": "",
      "AENTMTFL": "",
      "LBSEQ": 52.0,
      "LBNRIND": "NORMAL",
      "LBSTRESN": 0.08
    },
    {
      "STUDYID": "CDISCPILOT01",
      "SUBJID": "1015",
      "USUBJID": "01-701-1015",
      "TRTP": "Placebo",
      "TRTPN": 5.397605346934028e-79,
      "TRTA": "Placebo",
      "TRTAN": 5.397605346934028e-79,
      "TRTSDT": 19725.0,
      "TRTEDT": 19906.0,
      "AGE": 63.0,
      "AGEGR1": "<65",
      "AGEGR1N": 1.0,
      "RACE": "WHITE",
      "RACEN": 1.0,
      "SEX": "F",
      "COMP24FL": "Y",
      "DSRAEFL": "",
      "SAFFL": "Y",
      "AVISIT": "Week 2",
      "AVISITN": 2.0,
      "ADY": 15.0,
      "ADT": 19739.0,
      "VISIT": "WEEK 2",
      "VISITNUM": 4.0,
      "PARAM": "Basophils (GI/L) change from previous visit, relative to normal range",
      "PARAMCD": "_BASO",
      "PARAMN": 110.0,
      "PARCAT1": "HEM",
      "AVAL": -0.2,
      "BASE": null,
      "CHG": null,
      "A1LO": null,
      "A1HI": null,
      "R2A1LO": null,
      "R2A1HI": null,
      "BR2A1LO": null,
      "BR2A1HI": null,
      "ANL01FL": "Y",
      "ALBTRVAL": 0.27,
      "ANRIND": "N",
      "BNRIND": "",
      "ABLFL": "",
      "AENTMTFL": "",
      "LBSEQ": 43.0,
      "LBNRIND": "NORMAL",
      "LBSTRESN": 0.03
    },
    {
      "STUDYID": "CDISCPILOT01",
      "SUBJID": "1015",
      "USUBJID": "01-701-1015",
      "TRTP": "Placebo",
      "TRTPN": 5.397605346934028e-79,
      "TRTA": "Placebo",
      "TRTAN": 5.397605346934028e-79,
      "TRTSDT": 19725.0,
      "TRTEDT": 19906.0,
      "AGE": 63.0,
      "AGEGR1": "<65",
      "AGEGR1N": 1.0,
      "RACE": "WHITE",
      "RACEN": 1.0,
      "SEX": "F",
      "COMP24FL": "Y",
      "DSRAEFL": "",
      "SAFFL": "Y",
      "AVISIT": "Week 2",
      "AVISITN": 2.0,
      "ADY": 15.0,
      "ADT": 19739.0,
      "VISIT": "WEEK 2",
      "VISITNUM": 4.0,
      "PARAM": "Platelet (GI/L) change from previous visit, relative to normal range",
      "PARAMCD": "_PLAT",
      "PARAMN": 111.0,
      "PARCAT1": "HEM",
      "AVAL": 0.3,
      "BASE": null,
      "CHG": null,
      "A1LO": null,
      "A1HI": null,
      "R2A1LO": null,
      "R2A1HI": null,
      "BR2A1LO": null,
      "BR2A1HI": null,
      "ANL01FL": "",
      "ALBTRVAL": 285.0,
      "ANRIND": "N",
      "BNRIND": "",
      "ABLFL": "",
      "AENTMTFL": "",
      "LBSEQ": 67.0,
      "LBNRIND": "NORMAL",
      "LBSTRESN": 306.0
    },
    {
      "STUDYID": "CDISCPILOT01",
      "SUBJID": "1015",
      "USUBJID": "01-701-1015",
      "TRTP": "Placebo",
      "TRTPN": 5.397605346934028e-79,
      "TRTA": "Placebo",
      "TRTAN": 5.397605346934028e-79,
      "TRTSDT": 19725.0,
      "TRTEDT": 19906.0,
      "AGE": 63.0,
      "AGEGR1": "<65",
      "AGEGR1N": 1.0,
      "RACE": "WHITE",
      "RACEN": 1.0,
      "SEX": "F",
      "COMP24FL": "Y",
      "DSRAEFL": "",
      "SAFFL": "Y",
      "AVISIT": "Week 2",
      "AVISITN": 2.0,
      "ADY": 15.0,
      "ADT": 19739.0,
      "VISIT": "WEEK 2",
      "VISITNUM": 4.0,
      "PARAM": "Erythrocytes (TI/L) change from previous visit, relative to normal range",
      "PARAMCD": "_RBC",
      "PARAMN": 112.0,
      "PARCAT1": "HEM",
      "AVAL": 5.397605346934028e-79,
      "BASE": null,
      "CHG": null,
      "A1LO": null,
      "A1HI": null,
      "R2A1LO": null,
      "R2A1HI": null,
      "BR2A1LO": null,
      "BR2A1HI": null,
      "ANL01FL": "",
      "ALBTRVAL": 3.3499999999999996,
      "ANRIND": "N",
      "BNRIND": "",
      "ABLFL": "",
      "AENTMTFL": "",
      "LBSEQ": 69.0,
      "LBNRIND": "NORMAL",
      "LBSTRESN": 5.3
    },
    {
      "STUDYID": "CDISCPILOT01",
      "SUBJID": "1015",
      "USUBJID": "01-701-1015",
      "TRTP": "Placebo",
      "TRTPN": 5.397605346934028e-79,
      "TRTA": "Placebo",
      "TRTAN": 5.397605346934028e-79,
      "TRTSDT": 19725.0,
      "TRTEDT": 19906.0,
      "AGE": 63.0,
      "AGEGR1": "<65",
      "AGEGR1N": 1.0,
      "RACE": "WHITE",
      "RACEN": 1.0,
      "SEX": "F",
      "COMP24FL": "Y",
      "DSRAEFL": "",
      "SAFFL": "Y",
      "AVISIT": "Week 4",
      "AVISITN": 4.0,
      "ADY": 29.0,
      "ADT": 19753.0,
      "VISIT": "WEEK 4",
      "VISITNUM": 5.0,
      "PARAM": "Hemoglobin (mmol/L) change from previous visit, relative to normal range",
      "PARAMCD": "_HGB",
      "PARAMN": 101.0,
      "PARCAT1": "HEM",
      "AVAL": -0.4,
      "BASE": null,
      "CHG": null,
      "A1LO": null,
      "A1HI": null,
      "R2A1LO": null,
      "R2A1HI": null,
      "BR2A1LO": null,
      "BR2A1HI": null,
      "ANL01FL": "Y",
      "ALBTRVAL": 6.398959999999999,
      "ANRIND": "N",
      "BNRIND": "",
      "ABLFL": "",
      "AENTMTFL": "",
      "LBSEQ": 90.0,
      "LBNRIND": "NORMAL",
      "LBSTRESN": 8.31604
    },
    {
      "STUDYID": "CDISCPILOT01",
      "SUBJID": "1015",
      "USUBJID": "01-701-1015",
      "TRTP": "Placebo",
      "TRTPN": 5.397605346934028e-79,
      "TRTA": "Placebo",
      "TRTAN": 5.397605346934028e-79,
      "TRTSDT": 19725.0,
      "TRTEDT": 19906.0,
      "AGE": 63.0,
      "AGEGR1": "<65",
      "AGEGR1N": 1.0,
      "RACE": "WHITE",
      "RACEN": 1.0,
      "SEX": "F",
      "COMP24FL": "Y",
      "DSRAEFL": "",
      "SAFFL": "Y",
      "AVISIT": "Week 4",
      "AVISITN": 4.0,
      "ADY": 29.0,
      "ADT": 19753.0,
      "VISIT": "WEEK 4",
      "VISITNUM": 5.0,
      "PARAM": "Hematocrit change from previous visit, relative to normal range",
      "PARAMCD": "_HCT",
      "PARAMN": 102.0,
      "PARCAT1": "HEM",
      "AVAL": -0.6,
      "BASE": null,
      "CHG": null,
      "A1LO": null,
      "A1HI": null,
      "R2A1LO": null,
      "R2A1HI": null,
      "BR2A1LO": null,
      "BR2A1HI": null,
      "ANL01FL": "Y",
      "ALBTRVAL": 0.33,
      "ANRIND": "N",
      "BNRIND": "",
      "ABLFL": "",
      "AENTMTFL": "",
      "LBSEQ": 89.0,
      "LBNRIND": "NORMAL",
      "LBSTRESN": 0.38999999999999996
    },
    {
      "STUDYID": "CDISCPILOT01",
      "SUBJID": "1015",
      "USUBJID": "01-701-1015",
      "TRTP": "Placebo",
      "TRTPN": 5.397605346934028e-79,
      "TRTA": "Placebo",
      "TRTAN": 5.397605346934028e-79,
      "TRTSDT": 19725.0,
      "TRTEDT": 19906.0,
      "AGE": 63.0,
      "AGEGR1": "<65",
      "AGEGR1N": 1.0,
      "RACE": "WHITE",
      "RACEN": 1.0,
      "SEX": "F",
      "COMP24FL": "Y",
      "DSRAEFL": "",
      "SAFFL": "Y",
      "AVISIT": "Week 4",
      "AVISITN": 4.0,
      "ADY": 29.0,
      "ADT": 19753.0,
      "VISIT": "WEEK 4",
      "VISITNUM": 5.0,
      "PARAM": "Ery. Mean Corpuscular Volume (fL) change from previous visit, relative to normal range",
      "PARAMCD": "_MCV",
      "PARAMN": 103.0,
      "PARCAT1": "HEM",
      "AVAL": -0.3,
      "BASE": null,
      "CHG": null,
      "A1LO": null,
      "A1HI": null,
      "R2A1LO": null,
      "R2A1HI": null,
      "BR2A1LO": null,
      "BR2A1HI": null,
      "ANL01FL": "Y",
      "ALBTRVAL": 72.0,
      "ANRIND": "N",
      "BNRIND": "",
      "ABLFL": "",
      "AENTMTFL": "",
      "LBSEQ": 95.0,
      "LBNRIND": "LOW",
      "LBSTRESN": 78.0
    },
    {
      "STUDYID": "CDISCPILOT01",
      "SUBJID": "1015",
      "USUBJID": "01-701-1015",
      "TRTP": "Placebo",
      "TRTPN": 5.397605346934028e-79,
      "TRTA": "Placebo",
      "TRTAN": 5.397605346934028e-79,
      "TRTSDT": 19725.0,
      "TRTEDT": 19906.0,
      "AGE": 63.0,
      "AGEGR1": "<65",
      "AGEGR1N": 1.0,
      "RACE": "WHITE",
      "RACEN": 1.0,
      "SEX": "F",
      "COMP24FL": "Y",
      "DSRAEFL": "",
      "SAFFL": "Y",
      "AVISIT": "Week 4",
      "AVISITN": 4.0,
      "ADY": 29.0,
      "ADT": 19753.0,
      "VISIT": "WEEK 4",
      "VISITNUM": 5.0,
      "PARAM": "Ery. Mean Corpuscular Hemoglobin (fmol(Fe)) change from previous visit, relative to normal range",
      "PARAMCD": "_MCH",
      "PARAMN": 104.0,
      "PARCAT1": "HEM",
      "AVAL": 5.397605346934028e-79,
      "BASE": null,
      "CHG": null,
      "A1LO": null,
      "A1HI": null,
      "R2A1LO": null,
      "R2A1HI": null,
      "BR2A1LO": null,
      "BR2A1HI": null,
      "ANL01FL": "",
      "ALBTRVAL": 1.4743800000000002,
      "ANRIND": "N",
      "BNRIND": "",
      "ABLFL": "",
      "AENTMTFL": "",
      "LBSEQ": 93.0,
      "LBNRIND": "NORMAL",
      "LBSTRESN": 1.67562
    },
    {
      "STUDYID": "CDISCPILOT01",
      "SUBJID": "1015",
      "USUBJID": "01-701-1015",
      "TRTP": "Placebo",
      "TRTPN": 5.397605346934028e-79,
      "TRTA": "Placebo",
      "TRTAN": 5.397605346934028e-79,
      "TRTSDT": 19725.0,
      "TRTEDT": 19906.0,
      "AGE": 63.0,
      "AGEGR1": "<65",
      "AGEGR1N": 1.0,
      "RACE": "WHITE",
      "RACEN": 1.0,
      "SEX": "F",
      "COMP24FL": "Y",
      "DSRAEFL": "",
      "SAFFL": "Y",
      "AVISIT": "Week 4",
      "AVISITN": 4.0,
      "ADY": 29.0,
      "ADT": 19753.0,
      "VISIT": "WEEK 4",
      "VISITNUM": 5.0,
      "PARAM": "Ery. Mean Corpuscular HGB Concentration (mmol/L) change from previous visit, relative to normal rang",
      "PARAMCD": "_MCHC",
      "PARAMN": 105.0,
      "PARCAT1": "HEM",
      "AVAL": 0.2,
      "BASE": null,
      "CHG": null,
      "A1LO": null,
      "A1HI": null,
      "R2A1LO": null,
      "R2A1HI": null,
      "BR2A1LO": null,
      "BR2A1HI": null,
      "ANL01FL": "",
      "ALBTRVAL": 14.8996,
      "ANRIND": "N",
      "BNRIND": "",
      "ABLFL": "",
      "AENTMTFL": "",
      "LBSEQ": 94.0,
      "LBNRIND": "NORMAL",
      "LBSTRESN": 21.1004
    },
    {
      "STUDYID": "CDISCPILOT01",
      "SUBJID": "1015",
      "USUBJID": "01-701-1015",
      "TRTP": "Placebo",
      "TRTPN": 5.397605346934028e-79,
      "TRTA": "Placebo",
      "TRTAN": 5.397605346934028e-79,
      "TRTSDT": 19725.0,
      "TRTEDT": 19906.0,
      "AGE": 63.0,
      "AGEGR1": "<65",
      "AGEGR1N": 1.0,
      "RACE": "WHITE",
      "RACEN": 1.0,
      "SEX": "F",
      "COMP24FL": "Y",
      "DSRAEFL": "",
      "SAFFL": "Y",
      "AVISIT": "Week 4",
      "AVISITN": 4.0,
      "ADY": 29.0,
      "ADT": 19753.0,
      "VISIT": "WEEK 4",
      "VISITNUM": 5.0,
      "PARAM": "Leukocytes (GI/L) change from previous visit, relative to normal range",
      "PARAMCD": "_WBC",
      "PARAMN": 106.0,
      "PARCAT1": "HEM",
      "AVAL": -0.2,
      "BASE": null,
      "CHG": null,
      "A1LO": null,
      "A1HI": null,
      "R2A1LO": null,
      "R2A1HI": null,
      "BR2A1LO": null,
      "BR2A1HI": null,
      "ANL01FL": "",
      "ALBTRVAL": 11.509999999999998,
      "ANRIND": "N",
      "BNRIND": "",
      "ABLFL": "",
      "AENTMTFL": "",
      "LBSEQ": 103.0,
      "LBNRIND": "NORMAL",
      "LBSTRESN": 4.54
    },
    {
      "STUDYID": "CDISCPILOT01",
      "SUBJID": "1015",
      "USUBJID": "01-701-1015",
      "TRTP": "Placebo",
      "TRTPN": 5.397605346934028e-79,
      "TRTA": "Placebo",
      "TRTAN": 5.397605346934028e-79,
      "TRTSDT": 19725.0,
      "TRTEDT": 19906.0,
      "AGE": 63.0,
      "AGEGR1": "<65",
      "AGEGR1N": 1.0,
      "RACE": "WHITE",
      "RACEN": 1.0,
      "SEX": "F",
      "COMP24FL": "Y",
      "DSRAEFL": "",
      "SAFFL": "Y",
      "AVISIT": "Week 4",
      "AVISITN": 4.0,
      "ADY": 29.0,
      "ADT": 19753.0,
      "VISIT": "WEEK 4",
      "VISITNUM": 5.0,
      "PARAM": "Lymphocytes (GI/L) change from previous visit, relative to normal range",
      "PARAMCD": "_LYM",
      "PARAMN": 107.0,
      "PARCAT1": "HEM",
      "AVAL": 5.397605346934028e-79,
      "BASE": null,
      "CHG": null,
      "A1LO": null,
      "A1HI": null,
      "R2A1LO": null,
      "R2A1HI": null,
      "BR2A1LO": null,
      "BR2A1HI": null,
      "ANL01FL": "",
      "ALBTRVAL": 2.5700000000000003,
      "ANRIND": "N",
      "BNRIND": "",
      "ABLFL": "",
      "AENTMTFL": "",
      "LBSEQ": 92.0,
      "LBNRIND": "NORMAL",
      "LBSTRESN": 1.93
    },
    {
      "STUDYID": "CDISCPILOT01",
      "SUBJID": "1015",
      "USUBJID": "01-701-1015",
      "TRTP": "Placebo",
      "TRTPN": 5.397605346934028e-79,
      "TRTA": "Placebo",
      "TRTAN": 5.397605346934028e-79,
      "TRTSDT": 19725.0,
      "TRTEDT": 19906.0,
      "AGE": 63.0,
      "AGEGR1": "<65",
      "AGEGR1N": 1.0,
      "RACE": "WHITE",
      "RACEN": 1.0,
      "SEX": "F",
      "COMP24FL": "Y",
      "DSRAEFL": "",
      "SAFFL": "Y",
      "AVISIT": "Week 4",
      "AVISITN": 4.0,
      "ADY": 29.0,
      "ADT": 19753.0,
      "VISIT": "WEEK 4",
      "VISITNUM": 5.0,
      "PARAM": "Monocytes (GI/L) change from previous visit, relative to normal range",
      "PARAMCD": "_MONO",
      "PARAMN": 108.0,
      "PARCAT1": "HEM",
      "AVAL": -0.1,
      "BASE": null,
      "CHG": null,
      "A1LO": null,
      "A1HI": null,
      "R2A1LO": null,
      "R2A1HI": null,
      "BR2A1LO": null,
      "BR2A1HI": null,
      "ANL01FL": "",
      "ALBTRVAL": 1.15,
      "ANRIND": "N",
      "BNRIND": "",
      "ABLFL": "",
      "AENTMTFL": "",
      "LBSEQ": 96.0,
      "LBNRIND": "NORMAL",
      "LBSTRESN": 0.22999999999999998
    },
    {
      "STUDYID": "CDISCPILOT01",
      "SUBJID": "1015",
      "USUBJID": "01-701-1015",
      "TRTP": "Placebo",
      "TRTPN": 5.397605346934028e-79,
      "TRTA": "Placebo",
      "TRTAN": 5.397605346934028e-79,
      "TRTSDT": 19725.0,
      "TRTEDT": 19906.0,
      "AGE": 63.0,
      "AGEGR1": "<65",
      "AGEGR1N": 1.0,
      "RACE": "WHITE",
      "RACEN": 1.0,
      "SEX": "F",
      "COMP24FL": "Y",
      "DSRAEFL": "",
      "SAFFL": "Y",
      "AVISIT": "Week 4",
      "AVISITN": 4.0,
      "ADY": 29.0,
      "ADT": 19753.0,
      "VISIT": "WEEK 4",
      "VISITNUM": 5.0,
      "PARAM": "Eosinophils (GI/L) change from previous visit, relative to normal range",
      "PARAMCD": "_EOS",
      "PARAMN": 109.0,
      "PARCAT1": "HEM",
      "AVAL": 5.397605346934028e-79,
      "BASE": null,
      "CHG": null,
      "A1LO": null,
      "A1HI": null,
      "R2A1LO": null,
      "R2A1HI": null,
      "BR2A1LO": null,
      "BR2A1HI": null,
      "ANL01FL": "",
      "ALBTRVAL": 0.775,
      "ANRIND": "N",
      "BNRIND": "",
      "ABLFL": "",
      "AENTMTFL": "",
      "LBSEQ": 86.0,
      "LBNRIND": "NORMAL",
      "LBSTRESN": 0.08
    },
    {
      "STUDYID": "CDISCPILOT01",
      "SUBJID": "1015",
      "USUBJID": "01-701-1015",
      "TRTP": "Placebo",
      "TRTPN": 5.397605346934028e-79,
      "TRTA": "Placebo",
      "TRTAN": 5.397605346934028e-79,
      "TRTSDT": 19725.0,
      "TRTEDT": 19906.0,
      "AGE": 63.0,
      "AGEGR1": "<65",
      "AGEGR1N": 1.0,
      "RACE": "WHITE",
      "RACEN": 1.0,
      "SEX": "F",
      "COMP24FL": "Y",
      "DSRAEFL": "",
      "SAFFL": "Y",
      "AVISIT": "Week 4",
      "AVISITN": 4.0,
      "ADY": 29.0,
      "ADT": 19753.0,
      "VISIT": "WEEK 4",
      "VISITNUM": 5.0,
      "PARAM": "Basophils (GI/L) change from previous visit, relative to normal range",
      "PARAMCD": "_BASO",
      "PARAMN": 110.0,
      "PARCAT1": "HEM",
      "AVAL": -0.1,
      "BASE": null,
      "CHG": null,
      "A1LO": null,
      "A1HI": null,
      "R2A1LO": null,
      "R2A1HI": null,
      "BR2A1LO": null,
      "BR2A1HI": null,
      "ANL01FL": "",
      "ALBTRVAL": 0.27999999999999997,
      "ANRIND": "N",
      "BNRIND": "",
      "ABLFL": "",
      "AENTMTFL": "",
      "LBSEQ": 78.0,
      "LBNRIND": "NORMAL",
      "LBSTRESN": 0.02
    },
    {
      "STUDYID": "CDISCPILOT01",
      "SUBJID": "1015",
      "USUBJID": "01-701-1015",
      "TRTP": "Placebo",
      "TRTPN": 5.397605346934028e-79,
      "TRTA": "Placebo",
      "TRTAN": 5.397605346934028e-79,
      "TRTSDT": 19725.0,
      "TRTEDT": 19906.0,
      "AGE": 63.0,
      "AGEGR1": "<65",
      "AGEGR1N": 1.0,
      "RACE": "WHITE",
      "RACEN": 1.0,
      "SEX": "F",
      "COMP24FL": "Y",
      "DSRAEFL": "",
      "SAFFL": "Y",
      "AVISIT": "Week 4",
      "AVISITN": 4.0,
      "ADY": 29.0,
      "ADT": 19753.0,
      "VISIT": "WEEK 4",
      "VISITNUM": 5.0,
      "PARAM": "Platelet (GI/L) change from previous visit, relative to normal range",
      "PARAMCD": "_PLAT",
      "PARAMN": 111.0,
      "PARCAT1": "HEM",
      "AVAL": -0.5,
      "BASE": null,
      "CHG": null,
      "A1LO": null,
      "A1HI": null,
      "R2A1LO": null,
      "R2A1HI": null,
      "BR2A1LO": null,
      "BR2A1HI": null,
      "ANL01FL": "Y",
      "ALBTRVAL": 353.0,
      "ANRIND": "N",
      "BNRIND": "",
      "ABLFL": "",
      "AENTMTFL": "",
      "LBSEQ": 99.0,
      "LBNRIND": "NORMAL",
      "LBSTRESN": 238.0
    },
    {
      "STUDYID": "CDISCPILOT01",
      "SUBJID": "1015",
      "USUBJID": "01-701-1015",
      "TRTP": "Placebo",
      "TRTPN": 5.397605346934028e-79,
      "TRTA": "Placebo",
      "TRTAN": 5.397605346934028e-79,
      "TRTSDT": 19725.0,
      "TRTEDT": 19906.0,
      "AGE": 63.0,
      "AGEGR1": "<65",
      "AGEGR1N": 1.0,
      "RACE": "WHITE",
      "RACEN": 1.0,
      "SEX": "F",
      "COMP24FL": "Y",
      "DSRAEFL": "",
      "SAFFL": "Y",
      "AVISIT": "Week 4",
      "AVISITN": 4.0,
      "ADY": 29.0,
      "ADT": 19753.0,
      "VISIT": "WEEK 4",
      "VISITNUM": 5.0,
      "PARAM": "Erythrocytes (TI/L) change from previous visit, relative to normal range",
      "PARAMCD": "_RBC",
      "PARAMN": 112.0,
      "PARCAT1": "HEM",
      "AVAL": -0.4,
      "BASE": null,
      "CHG": null,
      "A1LO": null,
      "A1HI": null,
      "R2A1LO": null,
      "R2A1HI": null,
      "BR2A1LO": null,
      "BR2A1HI": null,
      "ANL01FL": "",
      "ALBTRVAL": 3.25,
      "ANRIND": "N",
      "BNRIND": "",
      "ABLFL": "",
      "AENTMTFL": "",
      "LBSEQ": 101.0,
      "LBNRIND": "NORMAL",
      "LBSTRESN": 5.0
    },
    {
      "STUDYID": "CDISCPILOT01",
      "SUBJID": "1015",
      "USUBJID": "01-701-1015",
      "TRTP": "Placebo",
      "TRTPN": 5.397605346934028e-79,
      "TRTA": "Placebo",
      "TRTAN": 5.397605346934028e-79,
      "TRTSDT": 19725.0,
      "TRTEDT": 19906.0,
      "AGE": 63.0,
      "AGEGR1": "<65",
      "AGEGR1N": 1.0,
      "RACE": "WHITE",
      "RACEN": 1.0,
      "SEX": "F",
      "COMP24FL": "Y",
      "DSRAEFL": "",
      "SAFFL": "Y",
      "AVISIT": "Week 6",
      "AVISITN": 6.0,
      "ADY": 42.0,
      "ADT": 19766.0,
      "VISIT": "WEEK 6",
      "VISITNUM": 7.0,
      "PARAM": "Hemoglobin (mmol/L) change from previous visit, relative to normal range",
      "PARAMCD": "_HGB",
      "PARAMN": 101.0,
      "PARCAT1": "HEM",
      "AVAL": 0.2,
      "BASE": null,
      "CHG": null,
      "A1LO": null,
      "A1HI": null,
      "R2A1LO": null,
      "R2A1HI": null,
      "BR2A1LO": null,
      "BR2A1HI": null,
      "ANL01FL": "",
      "ALBTRVAL": 6.15072,
      "ANRIND": "N",
      "BNRIND": "",
      "ABLFL": "",
      "AENTMTFL": "",
      "LBSEQ": 120.0,
      "LBNRIND": "NORMAL",
      "LBSTRESN": 8.564279999999998
    },
    {
      "STUDYID": "CDISCPILOT01",
      "SUBJID": "1015",
      "USUBJID": "01-701-1015",
      "TRTP": "Placebo",
      "TRTPN": 5.397605346934028e-79,
      "TRTA": "Placebo",
      "TRTAN": 5.397605346934028e-79,
      "TRTSDT": 19725.0,
      "TRTEDT": 19906.0,
      "AGE": 63.0,
      "AGEGR1": "<65",
      "AGEGR1N": 1.0,
      "RACE": "WHITE",
      "RACEN": 1.0,
      "SEX": "F",
      "COMP24FL": "Y",
      "DSRAEFL": "",
      "SAFFL": "Y",
      "AVISIT": "Week 6",
      "AVISITN": 6.0,
      "ADY": 42.0,
      "ADT": 19766.0,
      "VISIT": "WEEK 6",
      "VISITNUM": 7.0,
      "PARAM": "Hematocrit change from previous visit, relative to normal range",
      "PARAMCD": "_HCT",
      "PARAMN": 102.0,
      "PARCAT1": "HEM",
      "AVAL": 0.1,
      "BASE": null,
      "CHG": null,
      "A1LO": null,
      "A1HI": null,
      "R2A1LO": null,
      "R2A1HI": null,
      "BR2A1LO": null,
      "BR2A1HI": null,
      "ANL01FL": "",
      "ALBTRVAL": 0.32,
      "ANRIND": "N",
      "BNRIND": "",
      "ABLFL": "",
      "AENTMTFL": "",
      "LBSEQ": 119.0,
      "LBNRIND": "NORMAL",
      "LBSTRESN": 0.39999999999999997
    },
    {
      "STUDYID": "CDISCPILOT01",
      "SUBJID": "1015",
      "USUBJID": "01-701-1015",
      "TRTP": "Placebo",
      "TRTPN": 5.397605346934028e-79,
      "TRTA": "Placebo",
      "TRTAN": 5.397605346934028e-79,
      "TRTSDT": 19725.0,
      "TRTEDT": 19906.0,
      "AGE": 63.0,
      "AGEGR1": "<65",
      "AGEGR1N": 1.0,
      "RACE": "WHITE",
      "RACEN": 1.0,
      "SEX": "F",
      "COMP24FL": "Y",
      "DSRAEFL": "",
      "SAFFL": "Y",
      "AVISIT": "Week 6",
      "AVISITN": 6.0,
      "ADY": 42.0,
      "ADT": 19766.0,
      "VISIT": "WEEK 6",
      "VISITNUM": 7.0,
      "PARAM": "Ery. Mean Corpuscular Volume (fL) change from previous visit, relative to normal range",
      "PARAMCD": "_MCV",
      "PARAMN": 103.0,
      "PARCAT1": "HEM",
      "AVAL": 0.2,
      "BASE": null,
      "CHG": null,
      "A1LO": null,
      "A1HI": null,
      "R2A1LO": null,
      "R2A1HI": null,
      "BR2A1LO": null,
      "BR2A1HI": null,
      "ANL01FL": "",
      "ALBTRVAL": 70.0,
      "ANRIND": "N",
      "BNRIND": "",
      "ABLFL": "",
      "AENTMTFL": "",
      "LBSEQ": 125.0,
      "LBNRIND": "NORMAL",
      "LBSTRESN": 80.0
    },
    {
      "STUDYID": "CDISCPILOT01",
      "SUBJID": "1015",
      "USUBJID": "01-701-1015",
      "TRTP": "Placebo",
      "TRTPN": 5.397605346934028e-79,
      "TRTA": "Placebo",
      "TRTAN": 5.397605346934028e-79,
      "TRTSDT": 19725.0,
      "TRTEDT": 19906.0,
      "AGE": 63.0,
      "AGEGR1": "<65",
      "AGEGR1N": 1.0,
      "RACE": "WHITE",
      "RACEN": 1.0,
      "SEX": "F",
      "COMP24FL": "Y",
      "DSRAEFL": "",
      "SAFFL": "Y",
      "AVISIT": "Week 6",
      "AVISITN": 6.0,
      "ADY": 42.0,
      "ADT": 19766.0,
      "VISIT": "WEEK 6",
      "VISITNUM": 7.0,
      "PARAM": "Ery. Mean Corpuscular Hemoglobin (fmol(Fe)) change from previous visit, relative to normal range",
      "PARAMCD": "_MCH",
      "PARAMN": 104.0,
      "PARCAT1": "HEM",
      "AVAL": 5.397605346934028e-79,
      "BASE": null,
      "CHG": null,
      "A1LO": null,
      "A1HI": null,
      "R2A1LO": null,
      "R2A1HI": null,
      "BR2A1LO": null,
      "BR2A1HI": null,
      "ANL01FL": "",
      "ALBTRVAL": 1.4743800000000002,
      "ANRIND": "N",
      "BNRIND": "",
      "ABLFL": "",
      "AENTMTFL": "",
      "LBSEQ": 123.0,
      "LBNRIND": "NORMAL",
      "LBSTRESN": 1.67562
    },
    {
      "STUDYID": "CDISCPILOT01",
      "SUBJID": "1015",
      "USUBJID": "01-701-1015",
      "TRTP": "Placebo",
      "TRTPN": 5.397605346934028e-79,
      "TRTA": "Placebo",
      "TRTAN": 5.397605346934028e-79,
      "TRTSDT": 19725.0,
      "TRTEDT": 19906.0,
      "AGE": 63.0,
      "AGEGR1": "<65",
      "AGEGR1N": 1.0,
      "RACE": "WHITE",
      "RACEN": 1.0,
      "SEX": "F",
      "COMP24FL": "Y",
      "DSRAEFL": "",
      "SAFFL": "Y",
      "AVISIT": "Week 6",
      "AVISITN": 6.0,
      "ADY": 42.0,
      "ADT": 19766.0,
      "VISIT": "WEEK 6",
      "VISITNUM": 7.0,
      "PARAM": "Ery. Mean Corpuscular HGB Concentration (mmol/L) change from previous visit, relative to normal rang",
      "PARAMCD": "_MCHC",
      "PARAMN": 105.0,
      "PARCAT1": "HEM",
      "AVAL": 5.397605346934028e-79,
      "BASE": null,
      "CHG": null,
      "A1LO": null,
      "A1HI": null,
      "R2A1LO": null,
      "R2A1HI": null,
      "BR2A1LO": null,
      "BR2A1HI": null,
      "ANL01FL": "",
      "ALBTRVAL": 14.8996,
      "ANRIND": "N",
      "BNRIND": "",
      "ABLFL": "",
      "AENTMTFL": "",
      "LBSEQ": 124.0,
      "LBNRIND": "NORMAL",
      "LBSTRESN": 21.1004
    },
    {
      "STUDYID": "CDISCPILOT01",
      "SUBJID": "1015",
      "USUBJID": "01-701-1015",
      "TRTP": "Placebo",
      "TRTPN": 5.397605346934028e-79,
      "TRTA": "Placebo",
      "TRTAN": 5.397605346934028e-79,
      "TRTSDT": 19725.0,
      "TRTEDT": 19906.0,
      "AGE": 63.0,
      "AGEGR1": "<65",
      "AGEGR1N": 1.0,
      "RACE": "WHITE",
      "RACEN": 1.0,
      "SEX": "F",
      "COMP24FL": "Y",
      "DSRAEFL": "",
      "SAFFL": "Y",
      "AVISIT": "Week 6",
      "AVISITN": 6.0,
      "ADY": 42.0,
      "ADT": 19766.0,
      "VISIT": "WEEK 6",
      "VISITNUM": 7.0,
      "PARAM": "Leukocytes (GI/L) change from previous visit, relative to normal range",
      "PARAMCD": "_WBC",
      "PARAMN": 106.0,
      "PARCAT1": "HEM",
      "AVAL": -0.1,
      "BASE": null,
      "CHG": null,
      "A1LO": null,
      "A1HI": null,
      "R2A1LO": null,
      "R2A1HI": null,
      "BR2A1LO": null,
      "BR2A1HI": null,
      "ANL01FL": "",
      "ALBTRVAL": 11.799999999999997,
      "ANRIND": "N",
      "BNRIND": "",
      "ABLFL": "",
      "AENTMTFL": "",
      "LBSEQ": 133.0,
      "LBNRIND": "NORMAL",
      "LBSTRESN": 4.25
    },
    {
      "STUDYID": "CDISCPILOT01",
      "SUBJID": "1015",
      "USUBJID": "01-701-1015",
      "TRTP": "Placebo",
      "TRTPN": 5.397605346934028e-79,
      "TRTA": "Placebo",
      "TRTAN": 5.397605346934028e-79,
      "TRTSDT": 19725.0,
      "TRTEDT": 19906.0,
      "AGE": 63.0,
      "AGEGR1": "<65",
      "AGEGR1N": 1.0,
      "RACE": "WHITE",
      "RACEN": 1.0,
      "SEX": "F",
      "COMP24FL": "Y",
      "DSRAEFL": "",
      "SAFFL": "Y",
      "AVISIT": "Week 6",
      "AVISITN": 6.0,
      "ADY": 42.0,
      "ADT": 19766.0,
      "VISIT": "WEEK 6",
      "VISITNUM": 7.0,
      "PARAM": "Lymphocytes (GI/L) change from previous visit, relative to normal range",
      "PARAMCD": "_LYM",
      "PARAMN": 107.0,
      "PARCAT1": "HEM",
      "AVAL": -0.4,
      "BASE": null,
      "CHG": null,
      "A1LO": null,
      "A1HI": null,
      "R2A1LO": null,
      "R2A1HI": null,
      "BR2A1LO": null,
      "BR2A1HI": null,
      "ANL01FL": "",
      "ALBTRVAL": 2.99,
      "ANRIND": "N",
      "BNRIND": "",
      "ABLFL": "",
      "AENTMTFL": "",
      "LBSEQ": 122.0,
      "LBNRIND": "NORMAL",
      "LBSTRESN": 1.51
    },
    {
      "STUDYID": "CDISCPILOT01",
      "SUBJID": "1015",
      "USUBJID": "01-701-1015",
      "TRTP": "Placebo",
      "TRTPN": 5.397605346934028e-79,
      "TRTA": "Placebo",
      "TRTAN": 5.397605346934028e-79,
      "TRTSDT": 19725.0,
      "TRTEDT": 19906.0,
      "AGE": 63.0,
      "AGEGR1": "<65",
      "AGEGR1N": 1.0,
      "RACE": "WHITE",
      "RACEN": 1.0,
      "SEX": "F",
      "COMP24FL": "Y",
      "DSRAEFL": "",
      "SAFFL": "Y",
      "AVISIT": "Week 6",
      "AVISITN": 6.0,
      "ADY": 42.0,
      "ADT": 19766.0,
      "VISIT": "WEEK 6",
      "VISITNUM": 7.0,
      "PARAM": "Monocytes (GI/L) change from previous visit, relative to normal range",
      "PARAMCD": "_MONO",
      "PARAMN": 108.0,
      "PARCAT1": "HEM",
      "AVAL": 0.1,
      "BASE": null,
      "CHG": null,
      "A1LO": null,
      "A1HI": null,
      "R2A1LO": null,
      "R2A1HI": null,
      "BR2A1LO": null,
      "BR2A1HI": null,
      "ANL01FL": "",
      "ALBTRVAL": 1.0999999999999999,
      "ANRIND": "N",
      "BNRIND": "",
      "ABLFL": "",
      "AENTMTFL": "",
      "LBSEQ": 126.0,
      "LBNRIND": "NORMAL",
      "LBSTRESN": 0.27999999999999997
    },
    {
      "STUDYID": "CDISCPILOT01",
      "SUBJID": "1015",
      "USUBJID": "01-701-1015",
      "TRTP": "Placebo",
      "TRTPN": 5.397605346934028e-79,
      "TRTA": "Placebo",
      "TRTAN": 5.397605346934028e-79,
      "TRTSDT": 19725.0,
      "TRTEDT": 19906.0,
      "AGE": 63.0,
      "AGEGR1": "<65",
      "AGEGR1N": 1.0,
      "RACE": "WHITE",
      "RACEN": 1.0,
      "SEX": "F",
      "COMP24FL": "Y",
      "DSRAEFL": "",
      "SAFFL": "Y",
      "AVISIT": "Week 6",
      "AVISITN": 6.0,
      "ADY": 42.0,
      "ADT": 19766.0,
      "VISIT": "WEEK 6",
      "VISITNUM": 7.0,
      "PARAM": "Eosinophils (GI/L) change from previous visit, relative to normal range",
      "PARAMCD": "_EOS",
      "PARAMN": 109.0,
      "PARCAT1": "HEM",
      "AVAL": 5.397605346934028e-79,
      "BASE": null,
      "CHG": null,
      "A1LO": null,
      "A1HI": null,
      "R2A1LO": null,
      "R2A1HI": null,
      "BR2A1LO": null,
      "BR2A1HI": null,
      "ANL01FL": "",
      "ALBTRVAL": 0.775,
      "ANRIND": "N",
      "BNRIND": "",
      "ABLFL": "",
      "AENTMTFL": "",
      "LBSEQ": 116.0,
      "LBNRIND": "NORMAL",
      "LBSTRESN": 0.08
    },
    {
      "STUDYID": "CDISCPILOT01",
      "SUBJID": "1015",
      "USUBJID": "01-701-1015",
      "TRTP": "Placebo",
      "TRTPN": 5.397605346934028e-79,
      "TRTA": "Placebo",
      "TRTAN": 5.397605346934028e-79,
      "TRTSDT": 19725.0,
      "TRTEDT": 19906.0,
      "AGE": 63.0,
      "AGEGR1": "<65",
      "AGEGR1N": 1.0,
      "RACE": "WHITE",
      "RACEN": 1.0,
      "SEX": "F",
      "COMP24FL": "Y",
      "DSRAEFL": "",
      "SAFFL": "Y",
      "AVISIT": "Week 6",
      "AVISITN": 6.0,
      "ADY": 42.0,
      "ADT": 19766.0,
      "VISIT": "WEEK 6",
      "VISITNUM": 7.0,
      "PARAM": "Basophils (GI/L) change from previous visit, relative to normal range",
      "PARAMCD": "_BASO",
      "PARAMN": 110.0,
      "PARCAT1": "HEM",
      "AVAL": 0.2,
      "BASE": null,
      "CHG": null,
      "A1LO": null,
      "A1HI": null,
      "R2A1LO": null,
      "R2A1HI": null,
      "BR2A1LO": null,
      "BR2A1HI": null,
      "ANL01FL": "",
      "ALBTRVAL": 0.26,
      "ANRIND": "N",
      "BNRIND": "",
      "ABLFL": "",
      "AENTMTFL": "",
      "LBSEQ": 108.0,
      "LBNRIND": "NORMAL",
      "LBSTRESN": 0.039999999999999994
    },
    {
      "STUDYID": "CDISCPILOT01",
      "SUBJID": "1015",
      "USUBJID": "01-701-1015",
      "TRTP": "Placebo",
      "TRTPN": 5.397605346934028e-79,
      "TRTA": "Placebo",
      "TRTAN": 5.397605346934028e-79,
      "TRTSDT": 19725.0,
      "TRTEDT": 19906.0,
      "AGE": 63.0,
      "AGEGR1": "<65",
      "AGEGR1N": 1.0,
      "RACE": "WHITE",
      "RACEN": 1.0,
      "SEX": "F",
      "COMP24FL": "Y",
      "DSRAEFL": "",
      "SAFFL": "Y",
      "AVISIT": "Week 6",
      "AVISITN": 6.0,
      "ADY": 42.0,
      "ADT": 19766.0,
      "VISIT": "WEEK 6",
      "VISITNUM": 7.0,
      "PARAM": "Platelet (GI/L) change from previous visit, relative to normal range",
      "PARAMCD": "_PLAT",
      "PARAMN": 111.0,
      "PARCAT1": "HEM",
      "AVAL": 5.397605346934028e-79,
      "BASE": null,
      "CHG": null,
      "A1LO": null,
      "A1HI": null,
      "R2A1LO": null,
      "R2A1HI": null,
      "BR2A1LO": null,
      "BR2A1HI": null,
      "ANL01FL": "",
      "ALBTRVAL": 354.0,
      "ANRIND": "N",
      "BNRIND": "",
      "ABLFL": "",
      "AENTMTFL": "",
      "LBSEQ": 129.0,
      "LBNRIND": "NORMAL",
      "LBSTRESN": 237.0
    },
    {
      "STUDYID": "CDISCPILOT01",
      "SUBJID": "1015",
      "USUBJID": "01-701-1015",
      "TRTP": "Placebo",
      "TRTPN": 5.397605346934028e-79,
      "TRTA": "Placebo",
      "TRTAN": 5.397605346934028e-79,
      "TRTSDT": 19725.0,
      "TRTEDT": 19906.0,
      "AGE": 63.0,
      "AGEGR1": "<65",
      "AGEGR1N": 1.0,
      "RACE": "WHITE",
      "RACEN": 1.0,
      "SEX": "F",
      "COMP24FL": "Y",
      "DSRAEFL": "",
      "SAFFL": "Y",
      "AVISIT": "Week 6",
      "AVISITN": 6.0,
      "ADY": 42.0,
      "ADT": 19766.0,
      "VISIT": "WEEK 6",
      "VISITNUM": 7.0,
      "PARAM": "Erythrocytes (TI/L) change from previous visit, relative to normal range",
      "PARAMCD": "_RBC",
      "PARAMN": 112.0,
      "PARCAT1": "HEM",
      "AVAL": 0.1,
      "BASE": null,
      "CHG": null,
      "A1LO": null,
      "A1HI": null,
      "R2A1LO": null,
      "R2A1HI": null,
      "BR2A1LO": null,
      "BR2A1HI": null,
      "ANL01FL": "",
      "ALBTRVAL": 3.1500000000000004,
      "ANRIND": "N",
      "BNRIND": "",
      "ABLFL": "",
      "AENTMTFL": "",
      "LBSEQ": 131.0,
      "LBNRIND": "NORMAL",
      "LBSTRESN": 5.1
    },
    {
      "STUDYID": "CDISCPILOT01",
      "SUBJID": "1015",
      "USUBJID": "01-701-1015",
      "TRTP": "Placebo",
      "TRTPN": 5.397605346934028e-79,
      "TRTA": "Placebo",
      "TRTAN": 5.397605346934028e-79,
      "TRTSDT": 19725.0,
      "TRTEDT": 19906.0,
      "AGE": 63.0,
      "AGEGR1": "<65",
      "AGEGR1N": 1.0,
      "RACE": "WHITE",
      "RACEN": 1.0,
      "SEX": "F",
      "COMP24FL": "Y",
      "DSRAEFL": "",
      "SAFFL": "Y",
      "AVISIT": "Week 8",
      "AVISITN": 8.0,
      "ADY": 63.0,
      "ADT": 19787.0,
      "VISIT": "WEEK 8",
      "VISITNUM": 8.0,
      "PARAM": "Hemoglobin (mmol/L) change from previous visit, relative to normal range",
      "PARAMCD": "_HGB",
      "PARAMN": 101.0,
      "PARCAT1": "HEM",
      "AVAL": 0.1,
      "BASE": null,
      "CHG": null,
      "A1LO": null,
      "A1HI": null,
      "R2A1LO": null,
      "R2A1HI": null,
      "BR2A1LO": null,
      "BR2A1HI": null,
      "ANL01FL": "",
      "ALBTRVAL": 6.026599999999998,
      "ANRIND": "N",
      "BNRIND": "",
      "ABLFL": "",
      "AENTMTFL": "",
      "LBSEQ": 150.0,
      "LBNRIND": "NORMAL",
      "LBSTRESN": 8.6884
    },
    {
      "STUDYID": "CDISCPILOT01",
      "SUBJID": "1015",
      "USUBJID": "01-701-1015",
      "TRTP": "Placebo",
      "TRTPN": 5.397605346934028e-79,
      "TRTA": "Placebo",
      "TRTAN": 5.397605346934028e-79,
      "TRTSDT": 19725.0,
      "TRTEDT": 19906.0,
      "AGE": 63.0,
      "AGEGR1": "<65",
      "AGEGR1N": 1.0,
      "RACE": "WHITE",
      "RACEN": 1.0,
      "SEX": "F",
      "COMP24FL": "Y",
      "DSRAEFL": "",
      "SAFFL": "Y",
      "AVISIT": "Week 8",
      "AVISITN": 8.0,
      "ADY": 63.0,
      "ADT": 19787.0,
      "VISIT": "WEEK 8",
      "VISITNUM": 8.0,
      "PARAM": "Hematocrit change from previous visit, relative to normal range",
      "PARAMCD": "_HCT",
      "PARAMN": 102.0,
      "PARCAT1": "HEM",
      "AVAL": 0.3,
      "BASE": null,
      "CHG": null,
      "A1LO": null,
      "A1HI": null,
      "R2A1LO": null,
      "R2A1HI": null,
      "BR2A1LO": null,
      "BR2A1HI": null,
      "ANL01FL": "",
      "ALBTRVAL": 0.3,
      "ANRIND": "N",
      "BNRIND": "",
      "ABLFL": "",
      "AENTMTFL": "",
      "LBSEQ": 149.0,
      "LBNRIND": "NORMAL",
      "LBSTRESN": 0.42
    },
    {
      "STUDYID": "CDISCPILOT01",
      "SUBJID": "1015",
      "USUBJID": "01-701-1015",
      "TRTP": "Placebo",
      "TRTPN": 5.397605346934028e-79,
      "TRTA": "Placebo",
      "TRTAN": 5.397605346934028e-79,
      "TRTSDT": 19725.0,
      "TRTEDT": 19906.0,
      "AGE": 63.0,
      "AGEGR1": "<65",
      "AGEGR1N": 1.0,
      "RACE": "WHITE",
      "RACEN": 1.0,
      "SEX": "F",
      "COMP24FL": "Y",
      "DSRAEFL": "",
      "SAFFL": "Y",
      "AVISIT": "Week 8",
      "AVISITN": 8.0,
      "ADY": 63.0,
      "ADT": 19787.0,
      "VISIT": "WEEK 8",
      "VISITNUM": 8.0,
      "PARAM": "Ery. Mean Corpuscular Volume (fL) change from previous visit, relative to normal range",
      "PARAMCD": "_MCV",
      "PARAMN": 103.0,
      "PARCAT1": "HEM",
      "AVAL": 0.3,
      "BASE": null,
      "CHG": null,
      "A1LO": null,
      "A1HI": null,
      "R2A1LO": null,
      "R2A1HI": null,
      "BR2A1LO": null,
      "BR2A1HI": null,
      "ANL01FL": "",
      "ALBTRVAL": 67.0,
      "ANRIND": "N",
      "BNRIND": "",
      "ABLFL": "",
      "AENTMTFL": "",
      "LBSEQ": 155.0,
      "LBNRIND": "NORMAL",
      "LBSTRESN": 83.0
    },
    {
      "STUDYID": "CDISCPILOT01",
      "SUBJID": "1015",
      "USUBJID": "01-701-1015",
      "TRTP": "Placebo",
      "TRTPN": 5.397605346934028e-79,
      "TRTA": "Placebo",
      "TRTAN": 5.397605346934028e-79,
      "TRTSDT": 19725.0,
      "TRTEDT": 19906.0,
      "AGE": 63.0,
      "AGEGR1": "<65",
      "AGEGR1N": 1.0,
      "RACE": "WHITE",
      "RACEN": 1.0,
      "SEX": "F",
      "COMP24FL": "Y",
      "DSRAEFL": "",
      "SAFFL": "Y",
      "AVISIT": "Week 8",
      "AVISITN": 8.0,
      "ADY": 63.0,
      "ADT": 19787.0,
      "VISIT": "WEEK 8",
      "VISITNUM": 8.0,
      "PARAM": "Ery. Mean Corpuscular Hemoglobin (fmol(Fe)) change from previous visit, relative to normal range",
      "PARAMCD": "_MCH",
      "PARAMN": 104.0,
      "PARCAT1": "HEM",
      "AVAL": 5.397605346934028e-79,
      "BASE": null,
      "CHG": null,
      "A1LO": null,
      "A1HI": null,
      "R2A1LO": null,
      "R2A1HI": null,
      "BR2A1LO": null,
      "BR2A1HI": null,
      "ANL01FL": "",
      "ALBTRVAL": 1.4743800000000002,
      "ANRIND": "N",
      "BNRIND": "",
      "ABLFL": "",
      "AENTMTFL": "",
      "LBSEQ": 153.0,
      "LBNRIND": "NORMAL",
      "LBSTRESN": 1.67562
    },
    {
      "STUDYID": "CDISCPILOT01",
      "SUBJID": "1015",
      "USUBJID": "01-701-1015",
      "TRTP": "Placebo",
      "TRTPN": 5.397605346934028e-79,
      "TRTA": "Placebo",
      "TRTAN": 5.397605346934028e-79,
      "TRTSDT": 19725.0,
      "TRTEDT": 19906.0,
      "AGE": 63.0,
      "AGEGR1": "<65",
      "AGEGR1N": 1.0,
      "RACE": "WHITE",
      "RACEN": 1.0,
      "SEX": "F",
      "COMP24FL": "Y",
      "DSRAEFL": "",
      "SAFFL": "Y",
      "AVISIT": "Week 8",
      "AVISITN": 8.0,
      "ADY": 63.0,
      "ADT": 19787.0,
      "VISIT": "WEEK 8",
      "VISITNUM": 8.0,
      "PARAM": "Ery. Mean Corpuscular HGB Concentration (mmol/L) change from previous visit, relative to normal rang",
      "PARAMCD": "_MCHC",
      "PARAMN": 105.0,
      "PARCAT1": "HEM",
      "AVAL": -0.2,
      "BASE": null,
      "CHG": null,
      "A1LO": null,
      "A1HI": null,
      "R2A1LO": null,
      "R2A1HI": null,
      "BR2A1LO": null,
      "BR2A1HI": null,
      "ANL01FL": "",
      "ALBTRVAL": 15.520199999999999,
      "ANRIND": "N",
      "BNRIND": "",
      "ABLFL": "",
      "AENTMTFL": "",
      "LBSEQ": 154.0,
      "LBNRIND": "NORMAL",
      "LBSTRESN": 20.4798
    },
    {
      "STUDYID": "CDISCPILOT01",
      "SUBJID": "1015",
      "USUBJID": "01-701-1015",
      "TRTP": "Placebo",
      "TRTPN": 5.397605346934028e-79,
      "TRTA": "Placebo",
      "TRTAN": 5.397605346934028e-79,
      "TRTSDT": 19725.0,
      "TRTEDT": 19906.0,
      "AGE": 63.0,
      "AGEGR1": "<65",
      "AGEGR1N": 1.0,
      "RACE": "WHITE",
      "RACEN": 1.0,
      "SEX": "F",
      "COMP24FL": "Y",
      "DSRAEFL": "",
      "SAFFL": "Y",
      "AVISIT": "Week 8",
      "AVISITN": 8.0,
      "ADY": 63.0,
      "ADT": 19787.0,
      "VISIT": "WEEK 8",
      "VISITNUM": 8.0,
      "PARAM": "Leukocytes (GI/L) change from previous visit, relative to normal range",
      "PARAMCD": "_WBC",
      "PARAMN": 106.0,
      "PARCAT1": "HEM",
      "AVAL": 0.3,
      "BASE": null,
      "CHG": null,
      "A1LO": null,
      "A1HI": null,
      "R2A1LO": null,
      "R2A1HI": null,
      "BR2A1LO": null,
      "BR2A1HI": null,
      "ANL01FL": "",
      "ALBTRVAL": 10.699999999999998,
      "ANRIND": "N",
      "BNRIND": "",
      "ABLFL": "",
      "AENTMTFL": "",
      "LBSEQ": 163.0,
      "LBNRIND": "NORMAL",
      "LBSTRESN": 5.35
    },
    {
      "STUDYID": "CDISCPILOT01",
      "SUBJID": "1015",
      "USUBJID": "01-701-1015",
      "TRTP": "Placebo",
      "TRTPN": 5.397605346934028e-79,
      "TRTA": "Placebo",
      "TRTAN": 5.397605346934028e-79,
      "TRTSDT": 19725.0,
      "TRTEDT": 19906.0,
      "AGE": 63.0,
      "AGEGR1": "<65",
      "AGEGR1N": 1.0,
      "RACE": "WHITE",
      "RACEN": 1.0,
      "SEX": "F",
      "COMP24FL": "Y",
      "DSRAEFL": "",
      "SAFFL": "Y",
      "AVISIT": "Week 8",
      "AVISITN": 8.0,
      "ADY": 63.0,
      "ADT": 19787.0,
      "VISIT": "WEEK 8",
      "VISITNUM": 8.0,
      "PARAM": "Lymphocytes (GI/L) change from previous visit, relative to normal range",
      "PARAMCD": "_LYM",
      "PARAMN": 107.0,
      "PARCAT1": "HEM",
      "AVAL": 0.4,
      "BASE": null,
      "CHG": null,
      "A1LO": null,
      "A1HI": null,
      "R2A1LO": null,
      "R2A1HI": null,
      "BR2A1LO": null,
      "BR2A1HI": null,
      "ANL01FL": "",
      "ALBTRVAL": 2.5300000000000002,
      "ANRIND": "N",
      "BNRIND": "",
      "ABLFL": "",
      "AENTMTFL": "",
      "LBSEQ": 152.0,
      "LBNRIND": "NORMAL",
      "LBSTRESN": 1.97
    },
    {
      "STUDYID": "CDISCPILOT01",
      "SUBJID": "1015",
      "USUBJID": "01-701-1015",
      "TRTP": "Placebo",
      "TRTPN": 5.397605346934028e-79,
      "TRTA": "Placebo",
      "TRTAN": 5.397605346934028e-79,
      "TRTSDT": 19725.0,
      "TRTEDT": 19906.0,
      "AGE": 63.0,
      "AGEGR1": "<65",
      "AGEGR1N": 1.0,
      "RACE": "WHITE",
      "RACEN": 1.0,
      "SEX": "F",
      "COMP24FL": "Y",
      "DSRAEFL": "",
      "SAFFL": "Y",
      "AVISIT": "Week 8",
      "AVISITN": 8.0,
      "ADY": 63.0,
      "ADT": 19787.0,
      "VISIT": "WEEK 8",
      "VISITNUM": 8.0,
      "PARAM": "Monocytes (GI/L) change from previous visit, relative to normal range",
      "PARAMCD": "_MONO",
      "PARAMN": 108.0,
      "PARCAT1": "HEM",
      "AVAL": -0.1,
      "BASE": null,
      "CHG": null,
      "A1LO": null,
      "A1HI": null,
      "R2A1LO": null,
      "R2A1HI": null,
      "BR2A1LO": null,
      "BR2A1HI": null,
      "ANL01FL": "",
      "ALBTRVAL": 1.14,
      "ANRIND": "N",
      "BNRIND": "",
      "ABLFL": "",
      "AENTMTFL": "",
      "LBSEQ": 156.0,
      "LBNRIND": "NORMAL",
      "LBSTRESN": 0.24
    },
    {
      "STUDYID": "CDISCPILOT01",
      "SUBJID": "1015",
      "USUBJID": "01-701-1015",
      "TRTP": "Placebo",
      "TRTPN": 5.397605346934028e-79,
      "TRTA": "Placebo",
      "TRTAN": 5.397605346934028e-79,
      "TRTSDT": 19725.0,
      "TRTEDT": 19906.0,
      "AGE": 63.0,
      "AGEGR1": "<65",
      "AGEGR1N": 1.0,
      "RACE": "WHITE",
      "RACEN": 1.0,
      "SEX": "F",
      "COMP24FL": "Y",
      "DSRAEFL": "",
      "SAFFL": "Y",
      "AVISIT": "Week 8",
      "AVISITN": 8.0,
      "ADY": 63.0,
      "ADT": 19787.0,
      "VISIT": "WEEK 8",
      "VISITNUM": 8.0,
      "PARAM": "Eosinophils (GI/L) change from previous visit, relative to normal range",
      "PARAMCD": "_EOS",
      "PARAMN": 109.0,
      "PARCAT1": "HEM",
      "AVAL": 5.397605346934028e-79,
      "BASE": null,
      "CHG": null,
      "A1LO": null,
      "A1HI": null,
      "R2A1LO": null,
      "R2A1HI": null,
      "BR2A1LO": null,
      "BR2A1HI": null,
      "ANL01FL": "",
      "ALBTRVAL": 0.765,
      "ANRIND": "N",
      "BNRIND": "",
      "ABLFL": "",
      "AENTMTFL": "",
      "LBSEQ": 146.0,
      "LBNRIND": "NORMAL",
      "LBSTRESN": 0.09
    },
    {
      "STUDYID": "CDISCPILOT01",
      "SUBJID": "1015",
      "USUBJID": "01-701-1015",
      "TRTP": "Placebo",
      "TRTPN": 5.397605346934028e-79,
      "TRTA": "Placebo",
      "TRTAN": 5.397605346934028e-79,
      "TRTSDT": 19725.0,
      "TRTEDT": 19906.0,
      "AGE": 63.0,
      "AGEGR1": "<65",
      "AGEGR1N": 1.0,
      "RACE": "WHITE",
      "RACEN": 1.0,
      "SEX": "F",
      "COMP24FL": "Y",
      "DSRAEFL": "",
      "SAFFL": "Y",
      "AVISIT": "Week 8",
      "AVISITN": 8.0,
      "ADY": 63.0,
      "ADT": 19787.0,
      "VISIT": "WEEK 8",
      "VISITNUM": 8.0,
      "PARAM": "Basophils (GI/L) change from previous visit, relative to normal range",
      "PARAMCD": "_BASO",
      "PARAMN": 110.0,
      "PARCAT1": "HEM",
      "AVAL": 0.1,
      "BASE": null,
      "CHG": null,
      "A1LO": null,
      "A1HI": null,
      "R2A1LO": null,
      "R2A1HI": null,
      "BR2A1LO": null,
      "BR2A1HI": null,
      "ANL01FL": "",
      "ALBTRVAL": 0.25,
      "ANRIND": "N",
      "BNRIND": "",
      "ABLFL": "",
      "AENTMTFL": "",
      "LBSEQ": 138.0,
      "LBNRIND": "NORMAL",
      "LBSTRESN": 0.049999999999999996
    },
    {
      "STUDYID": "CDISCPILOT01",
      "SUBJID": "1015",
      "USUBJID": "01-701-1015",
      "TRTP": "Placebo",
      "TRTPN": 5.397605346934028e-79,
      "TRTA": "Placebo",
      "TRTAN": 5.397605346934028e-79,
      "TRTSDT": 19725.0,
      "TRTEDT": 19906.0,
      "AGE": 63.0,
      "AGEGR1": "<65",
      "AGEGR1N": 1.0,
      "RACE": "WHITE",
      "RACEN": 1.0,
      "SEX": "F",
      "COMP24FL": "Y",
      "DSRAEFL": "",
      "SAFFL": "Y",
      "AVISIT": "Week 8",
      "AVISITN": 8.0,
      "ADY": 63.0,
      "ADT": 19787.0,
      "VISIT": "WEEK 8",
      "VISITNUM": 8.0,
      "PARAM": "Platelet (GI/L) change from previous visit, relative to normal range",
      "PARAMCD": "_PLAT",
      "PARAMN": 111.0,
      "PARCAT1": "HEM",
      "AVAL": 0.2,
      "BASE": null,
      "CHG": null,
      "A1LO": null,
      "A1HI": null,
      "R2A1LO": null,
      "R2A1HI": null,
      "BR2A1LO": null,
      "BR2A1HI": null,
      "ANL01FL": "",
      "ALBTRVAL": 325.0,
      "ANRIND": "N",
      "BNRIND": "",
      "ABLFL": "",
      "AENTMTFL": "",
      "LBSEQ": 159.0,
      "LBNRIND": "NORMAL",
      "LBSTRESN": 266.0
    },
    {
      "STUDYID": "CDISCPILOT01",
      "SUBJID": "1015",
      "USUBJID": "01-701-1015",
      "TRTP": "Placebo",
      "TRTPN": 5.397605346934028e-79,
      "TRTA": "Placebo",
      "TRTAN": 5.397605346934028e-79,
      "TRTSDT": 19725.0,
      "TRTEDT": 19906.0,
      "AGE": 63.0,
      "AGEGR1": "<65",
      "AGEGR1N": 1.0,
      "RACE": "WHITE",
      "RACEN": 1.0,
      "SEX": "F",
      "COMP24FL": "Y",
      "DSRAEFL": "",
      "SAFFL": "Y",
      "AVISIT": "Week 8",
      "AVISITN": 8.0,
      "ADY": 63.0,
      "ADT": 19787.0,
      "VISIT": "WEEK 8",
      "VISITNUM": 8.0,
      "PARAM": "Erythrocytes (TI/L) change from previous visit, relative to normal range",
      "PARAMCD": "_RBC",
      "PARAMN": 112.0,
      "PARCAT1": "HEM",
      "AVAL": 5.397605346934028e-79,
      "BASE": null,
      "CHG": null,
      "A1LO": null,
      "A1HI": null,
      "R2A1LO": null,
      "R2A1HI": null,
      "BR2A1LO": null,
      "BR2A1HI": null,
      "ANL01FL": "",
      "ALBTRVAL": 3.1500000000000004,
      "ANRIND": "N",
      "BNRIND": "",
      "ABLFL": "",
      "AENTMTFL": "",
      "LBSEQ": 161.0,
      "LBNRIND": "NORMAL",
      "LBSTRESN": 5.1
    },
    {
      "STUDYID": "CDISCPILOT01",
      "SUBJID": "1015",
      "USUBJID": "01-701-1015",
      "TRTP": "Placebo",
      "TRTPN": 5.397605346934028e-79,
      "TRTA": "Placebo",
      "TRTAN": 5.397605346934028e-79,
      "TRTSDT": 19725.0,
      "TRTEDT": 19906.0,
      "AGE": 63.0,
      "AGEGR1": "<65",
      "AGEGR1N": 1.0,
      "RACE": "WHITE",
      "RACEN": 1.0,
      "SEX": "F",
      "COMP24FL": "Y",
      "DSRAEFL": "",
      "SAFFL": "Y",
      "AVISIT": "Week 12",
      "AVISITN": 12.0,
      "ADY": 84.0,
      "ADT": 19808.0,
      "VISIT": "WEEK 12",
      "VISITNUM": 9.0,
      "PARAM": "Hemoglobin (mmol/L) change from previous visit, relative to normal range",
      "PARAMCD": "_HGB",
      "PARAMN": 101.0,
      "PARCAT1": "HEM",
      "AVAL": -0.3,
      "BASE": null,
      "CHG": null,
      "A1LO": null,
      "A1HI": null,
      "R2A1LO": null,
      "R2A1HI": null,
      "BR2A1LO": null,
      "BR2A1HI": null,
      "ANL01FL": "",
      "ALBTRVAL": 6.398959999999999,
      "ANRIND": "N",
      "BNRIND": "",
      "ABLFL": "",
      "AENTMTFL": "",
      "LBSEQ": 181.0,
      "LBNRIND": "NORMAL",
      "LBSTRESN": 8.31604
    },
    {
      "STUDYID": "CDISCPILOT01",
      "SUBJID": "1015",
      "USUBJID": "01-701-1015",
      "TRTP": "Placebo",
      "TRTPN": 5.397605346934028e-79,
      "TRTA": "Placebo",
      "TRTAN": 5.397605346934028e-79,
      "TRTSDT": 19725.0,
      "TRTEDT": 19906.0,
      "AGE": 63.0,
      "AGEGR1": "<65",
      "AGEGR1N": 1.0,
      "RACE": "WHITE",
      "RACEN": 1.0,
      "SEX": "F",
      "COMP24FL": "Y",
      "DSRAEFL": "",
      "SAFFL": "Y",
      "AVISIT": "Week 12",
      "AVISITN": 12.0,
      "ADY": 84.0,
      "ADT": 19808.0,
      "VISIT": "WEEK 12",
      "VISITNUM": 9.0,
      "PARAM": "Hematocrit change from previous visit, relative to normal range",
      "PARAMCD": "_HCT",
      "PARAMN": 102.0,
      "PARCAT1": "HEM",
      "AVAL": -0.1,
      "BASE": null,
      "CHG": null,
      "A1LO": null,
      "A1HI": null,
      "R2A1LO": null,
      "R2A1HI": null,
      "BR2A1LO": null,
      "BR2A1HI": null,
      "ANL01FL": "",
      "ALBTRVAL": 0.31,
      "ANRIND": "N",
      "BNRIND": "",
      "ABLFL": "",
      "AENTMTFL": "",
      "LBSEQ": 180.0,
      "LBNRIND": "NORMAL",
      "LBSTRESN": 0.41
    },
    {
      "STUDYID": "CDISCPILOT01",
      "SUBJID": "1015",
      "USUBJID": "01-701-1015",
      "TRTP": "Placebo",
      "TRTPN": 5.397605346934028e-79,
      "TRTA": "Placebo",
      "TRTAN": 5.397605346934028e-79,
      "TRTSDT": 19725.0,
      "TRTEDT": 19906.0,
      "AGE": 63.0,
      "AGEGR1": "<65",
      "AGEGR1N": 1.0,
      "RACE": "WHITE",
      "RACEN": 1.0,
      "SEX": "F",
      "COMP24FL": "Y",
      "DSRAEFL": "",
      "SAFFL": "Y",
      "AVISIT": "Week 12",
      "AVISITN": 12.0,
      "ADY": 84.0,
      "ADT": 19808.0,
      "VISIT": "WEEK 12",
      "VISITNUM": 9.0,
      "PARAM": "Ery. Mean Corpuscular Volume (fL) change from previous visit, relative to normal range",
      "PARAMCD": "_MCV",
      "PARAMN": 103.0,
      "PARCAT1": "HEM",
      "AVAL": -0.2,
      "BASE": null,
      "CHG": null,
      "A1LO": null,
      "A1HI": null,
      "R2A1LO": null,
      "R2A1HI": null,
      "BR2A1LO": null,
      "BR2A1HI": null,
      "ANL01FL": "",
      "ALBTRVAL": 69.0,
      "ANRIND": "N",
      "BNRIND": "",
      "ABLFL": "",
      "AENTMTFL": "",
      "LBSEQ": 187.0,
      "LBNRIND": "NORMAL",
      "LBSTRESN": 81.0
    },
    {
      "STUDYID": "CDISCPILOT01",
      "SUBJID": "1015",
      "USUBJID": "01-701-1015",
      "TRTP": "Placebo",
      "TRTPN": 5.397605346934028e-79,
      "TRTA": "Placebo",
      "TRTAN": 5.397605346934028e-79,
      "TRTSDT": 19725.0,
      "TRTEDT": 19906.0,
      "AGE": 63.0,
      "AGEGR1": "<65",
      "AGEGR1N": 1.0,
      "RACE": "WHITE",
      "RACEN": 1.0,
      "SEX": "F",
      "COMP24FL": "Y",
      "DSRAEFL": "",
      "SAFFL": "Y",
      "AVISIT": "Week 12",
      "AVISITN": 12.0,
      "ADY": 84.0,
      "ADT": 19808.0,
      "VISIT": "WEEK 12",
      "VISITNUM": 9.0,
      "PARAM": "Ery. Mean Corpuscular Hemoglobin (fmol(Fe)) change from previous visit, relative to normal range",
      "PARAMCD": "_MCH",
      "PARAMN": 104.0,
      "PARCAT1": "HEM",
      "AVAL": 5.397605346934028e-79,
      "BASE": null,
      "CHG": null,
      "A1LO": null,
      "A1HI": null,
      "R2A1LO": null,
      "R2A1HI": null,
      "BR2A1LO": null,
      "BR2A1HI": null,
      "ANL01FL": "",
      "ALBTRVAL": 1.4743800000000002,
      "ANRIND": "N",
      "BNRIND": "",
      "ABLFL": "",
      "AENTMTFL": "",
      "LBSEQ": 185.0,
      "LBNRIND": "NORMAL",
      "LBSTRESN": 1.67562
    },
    {
      "STUDYID": "CDISCPILOT01",
      "SUBJID": "1015",
      "USUBJID": "01-701-1015",
      "TRTP": "Placebo",
      "TRTPN": 5.397605346934028e-79,
      "TRTA": "Placebo",
      "TRTAN": 5.397605346934028e-79,
      "TRTSDT": 19725.0,
      "TRTEDT": 19906.0,
      "AGE": 63.0,
      "AGEGR1": "<65",
      "AGEGR1N": 1.0,
      "RACE": "WHITE",
      "RACEN": 1.0,
      "SEX": "F",
      "COMP24FL": "Y",
      "DSRAEFL": "",
      "SAFFL": "Y",
      "AVISIT": "Week 12",
      "AVISITN": 12.0,
      "ADY": 84.0,
      "ADT": 19808.0,
      "VISIT": "WEEK 12",
      "VISITNUM": 9.0,
      "PARAM": "Ery. Mean Corpuscular HGB Concentration (mmol/L) change from previous visit, relative to normal rang",
      "PARAMCD": "_MCHC",
      "PARAMN": 105.0,
      "PARCAT1": "HEM",
      "AVAL": 5.397605346934028e-79,
      "BASE": null,
      "CHG": null,
      "A1LO": null,
      "A1HI": null,
      "R2A1LO": null,
      "R2A1HI": null,
      "BR2A1LO": null,
      "BR2A1HI": null,
      "ANL01FL": "",
      "ALBTRVAL": 15.520199999999999,
      "ANRIND": "N",
      "BNRIND": "",
      "ABLFL": "",
      "AENTMTFL": "",
      "LBSEQ": 186.0,
      "LBNRIND": "NORMAL",
      "LBSTRESN": 20.4798
    },
    {
      "STUDYID": "CDISCPILOT01",
      "SUBJID": "1015",
      "USUBJID": "01-701-1015",
      "TRTP": "Placebo",
      "TRTPN": 5.397605346934028e-79,
      "TRTA": "Placebo",
      "TRTAN": 5.397605346934028e-79,
      "TRTSDT": 19725.0,
      "TRTEDT": 19906.0,
      "AGE": 63.0,
      "AGEGR1": "<65",
      "AGEGR1N": 1.0,
      "RACE": "WHITE",
      "RACEN": 1.0,
      "SEX": "F",
      "COMP24FL": "Y",
      "DSRAEFL": "",
      "SAFFL": "Y",
      "AVISIT": "Week 12",
      "AVISITN": 12.0,
      "ADY": 84.0,
      "ADT": 19808.0,
      "VISIT": "WEEK 12",
      "VISITNUM": 9.0,
      "PARAM": "Leukocytes (GI/L) change from previous visit, relative to normal range",
      "PARAMCD": "_WBC",
      "PARAMN": 106.0,
      "PARCAT1": "HEM",
      "AVAL": 5.397605346934028e-79,
      "BASE": null,
      "CHG": null,
      "A1LO": null,
      "A1HI": null,
      "R2A1LO": null,
      "R2A1HI": null,
      "BR2A1LO": null,
      "BR2A1HI": null,
      "ANL01FL": "",
      "ALBTRVAL": 10.809999999999999,
      "ANRIND": "N",
      "BNRIND": "",
      "ABLFL": "",
      "AENTMTFL": "",
      "LBSEQ": 198.0,
      "LBNRIND": "NORMAL",
      "LBSTRESN": 5.239999999999999
    },
    {
      "STUDYID": "CDISCPILOT01",
      "SUBJID": "1015",
      "USUBJID": "01-701-1015",
      "TRTP": "Placebo",
      "TRTPN": 5.397605346934028e-79,
      "TRTA": "Placebo",
      "TRTAN": 5.397605346934028e-79,
      "TRTSDT": 19725.0,
      "TRTEDT": 19906.0,
      "AGE": 63.0,
      "AGEGR1": "<65",
      "AGEGR1N": 1.0,
      "RACE": "WHITE",
      "RACEN": 1.0,
      "SEX": "F",
      "COMP24FL": "Y",
      "DSRAEFL": "",
      "SAFFL": "Y",
      "AVISIT": "Week 12",
      "AVISITN": 12.0,
      "ADY": 84.0,
      "ADT": 19808.0,
      "VISIT": "WEEK 12",
      "VISITNUM": 9.0,
      "PARAM": "Lymphocytes (GI/L) change from previous visit, relative to normal range",
      "PARAMCD": "_LYM",
      "PARAMN": 107.0,
      "PARCAT1": "HEM",
      "AVAL": 0.1,
      "BASE": null,
      "CHG": null,
      "A1LO": null,
      "A1HI": null,
      "R2A1LO": null,
      "R2A1HI": null,
      "BR2A1LO": null,
      "BR2A1HI": null,
      "ANL01FL": "",
      "ALBTRVAL": 2.41,
      "ANRIND": "N",
      "BNRIND": "",
      "ABLFL": "",
      "AENTMTFL": "",
      "LBSEQ": 184.0,
      "LBNRIND": "NORMAL",
      "LBSTRESN": 2.09
    },
    {
      "STUDYID": "CDISCPILOT01",
      "SUBJID": "1015",
      "USUBJID": "01-701-1015",
      "TRTP": "Placebo",
      "TRTPN": 5.397605346934028e-79,
      "TRTA": "Placebo",
      "TRTAN": 5.397605346934028e-79,
      "TRTSDT": 19725.0,
      "TRTEDT": 19906.0,
      "AGE": 63.0,
      "AGEGR1": "<65",
      "AGEGR1N": 1.0,
      "RACE": "WHITE",
      "RACEN": 1.0,
      "SEX": "F",
      "COMP24FL": "Y",
      "DSRAEFL": "",
      "SAFFL": "Y",
      "AVISIT": "Week 12",
      "AVISITN": 12.0,
      "ADY": 84.0,
      "ADT": 19808.0,
      "VISIT": "WEEK 12",
      "VISITNUM": 9.0,
      "PARAM": "Monocytes (GI/L) change from previous visit, relative to normal range",
      "PARAMCD": "_MONO",
      "PARAMN": 108.0,
      "PARCAT1": "HEM",
      "AVAL": 5.397605346934028e-79,
      "BASE": null,
      "CHG": null,
      "A1LO": null,
      "A1HI": null,
      "R2A1LO": null,
      "R2A1HI": null,
      "BR2A1LO": null,
      "BR2A1HI": null,
      "ANL01FL": "",
      "ALBTRVAL": 1.14,
      "ANRIND": "N",
      "BNRIND": "",
      "ABLFL": "",
      "AENTMTFL": "",
      "LBSEQ": 188.0,
      "LBNRIND": "NORMAL",
      "LBSTRESN": 0.24
    },
    {
      "STUDYID": "CDISCPILOT01",
      "SUBJID": "1015",
      "USUBJID": "01-701-1015",
      "TRTP": "Placebo",
      "TRTPN": 5.397605346934028e-79,
      "TRTA": "Placebo",
      "TRTAN": 5.397605346934028e-79,
      "TRTSDT": 19725.0,
      "TRTEDT": 19906.0,
      "AGE": 63.0,
      "AGEGR1": "<65",
      "AGEGR1N": 1.0,
      "RACE": "WHITE",
      "RACEN": 1.0,
      "SEX": "F",
      "COMP24FL": "Y",
      "DSRAEFL": "",
      "SAFFL": "Y",
      "AVISIT": "Week 12",
      "AVISITN": 12.0,
      "ADY": 84.0,
      "ADT": 19808.0,
      "VISIT": "WEEK 12",
      "VISITNUM": 9.0,
      "PARAM": "Eosinophils (GI/L) change from previous visit, relative to normal range",
      "PARAMCD": "_EOS",
      "PARAMN": 109.0,
      "PARCAT1": "HEM",
      "AVAL": 0.1,
      "BASE": null,
      "CHG": null,
      "A1LO": null,
      "A1HI": null,
      "R2A1LO": null,
      "R2A1HI": null,
      "BR2A1LO": null,
      "BR2A1HI": null,
      "ANL01FL": "",
      "ALBTRVAL": 0.725,
      "ANRIND": "N",
      "BNRIND": "",
      "ABLFL": "",
      "AENTMTFL": "",
      "LBSEQ": 177.0,
      "LBNRIND": "NORMAL",
      "LBSTRESN": 0.13
    },
    {
      "STUDYID": "CDISCPILOT01",
      "SUBJID": "1015",
      "USUBJID": "01-701-1015",
      "TRTP": "Placebo",
      "TRTPN": 5.397605346934028e-79,
      "TRTA": "Placebo",
      "TRTAN": 5.397605346934028e-79,
      "TRTSDT": 19725.0,
      "TRTEDT": 19906.0,
      "AGE": 63.0,
      "AGEGR1": "<65",
      "AGEGR1N": 1.0,
      "RACE": "WHITE",
      "RACEN": 1.0,
      "SEX": "F",
      "COMP24FL": "Y",
      "DSRAEFL": "",
      "SAFFL": "Y",
      "AVISIT": "Week 12",
      "AVISITN": 12.0,
      "ADY": 84.0,
      "ADT": 19808.0,
      "VISIT": "WEEK 12",
      "VISITNUM": 9.0,
      "PARAM": "Basophils (GI/L) change from previous visit, relative to normal range",
      "PARAMCD": "_BASO",
      "PARAMN": 110.0,
      "PARCAT1": "HEM",
      "AVAL": -0.1,
      "BASE": null,
      "CHG": null,
      "A1LO": null,
      "A1HI": null,
      "R2A1LO": null,
      "R2A1HI": null,
      "BR2A1LO": null,
      "BR2A1HI": null,
      "ANL01FL": "",
      "ALBTRVAL": 0.26,
      "ANRIND": "N",
      "BNRIND": "",
      "ABLFL": "",
      "AENTMTFL": "",
      "LBSEQ": 168.0,
      "LBNRIND": "NORMAL",
      "LBSTRESN": 0.039999999999999994
    },
    {
      "STUDYID": "CDISCPILOT01",
      "SUBJID": "1015",
      "USUBJID": "01-701-1015",
      "TRTP": "Placebo",
      "TRTPN": 5.397605346934028e-79,
      "TRTA": "Placebo",
      "TRTAN": 5.397605346934028e-79,
      "TRTSDT": 19725.0,
      "TRTEDT": 19906.0,
      "AGE": 63.0,
      "AGEGR1": "<65",
      "AGEGR1N": 1.0,
      "RACE": "WHITE",
      "RACEN": 1.0,
      "SEX": "F",
      "COMP24FL": "Y",
      "DSRAEFL": "",
      "SAFFL": "Y",
      "AVISIT": "Week 12",
      "AVISITN": 12.0,
      "ADY": 84.0,
      "ADT": 19808.0,
      "VISIT": "WEEK 12",
      "VISITNUM": 9.0,
      "PARAM": "Platelet (GI/L) change from previous visit, relative to normal range",
      "PARAMCD": "_PLAT",
      "PARAMN": 111.0,
      "PARCAT1": "HEM",
      "AVAL": 5.397605346934028e-79,
      "BASE": null,
      "CHG": null,
      "A1LO": null,
      "A1HI": null,
      "R2A1LO": null,
      "R2A1HI": null,
      "BR2A1LO": null,
      "BR2A1HI": null,
      "ANL01FL": "",
      "ALBTRVAL": 331.0,
      "ANRIND": "N",
      "BNRIND": "",
      "ABLFL": "",
      "AENTMTFL": "",
      "LBSEQ": 192.0,
      "LBNRIND": "NORMAL",
      "LBSTRESN": 260.0
    },
    {
      "STUDYID": "CDISCPILOT01",
      "SUBJID": "1015",
      "USUBJID": "01-701-1015",
      "TRTP": "Placebo",
      "TRTPN": 5.397605346934028e-79,
      "TRTA": "Placebo",
      "TRTAN": 5.397605346934028e-79,
      "TRTSDT": 19725.0,
      "TRTEDT": 19906.0,
      "AGE": 63.0,
      "AGEGR1": "<65",
      "AGEGR1N": 1.0,
      "RACE": "WHITE",
      "RACEN": 1.0,
      "SEX": "F",
      "COMP24FL": "Y",
      "DSRAEFL": "",
      "SAFFL": "Y",
      "AVISIT": "Week 12",
      "AVISITN": 12.0,
      "ADY": 84.0,
      "ADT": 19808.0,
      "VISIT": "WEEK 12",
      "VISITNUM": 9.0,
      "PARAM": "Erythrocytes (TI/L) change from previous visit, relative to normal range",
      "PARAMCD": "_RBC",
      "PARAMN": 112.0,
      "PARCAT1": "HEM",
      "AVAL": -0.1,
      "BASE": null,
      "CHG": null,
      "A1LO": null,
      "A1HI": null,
      "R2A1LO": null,
      "R2A1HI": null,
      "BR2A1LO": null,
      "BR2A1HI": null,
      "ANL01FL": "",
      "ALBTRVAL": 3.25,
      "ANRIND": "N",
      "BNRIND": "",
      "ABLFL": "",
      "AENTMTFL": "",
      "LBSEQ": 194.0,
      "LBNRIND": "NORMAL",
      "LBSTRESN": 5.0
    },
    {
      "STUDYID": "CDISCPILOT01",
      "SUBJID": "1015",
      "USUBJID": "01-701-1015",
      "TRTP": "Placebo",
      "TRTPN": 5.397605346934028e-79,
      "TRTA": "Placebo",
      "TRTAN": 5.397605346934028e-79,
      "TRTSDT": 19725.0,
      "TRTEDT": 19906.0,
      "AGE": 63.0,
      "AGEGR1": "<65",
      "AGEGR1N": 1.0,
      "RACE": "WHITE",
      "RACEN": 1.0,
      "SEX": "F",
      "COMP24FL": "Y",
      "DSRAEFL": "",
      "SAFFL": "Y",
      "AVISIT": "Week 16",
      "AVISITN": 16.0,
      "ADY": 126.0,
      "ADT": 19850.0,
      "VISIT": "WEEK 16",
      "VISITNUM": 10.0,
      "PARAM": "Hemoglobin (mmol/L) change from previous visit, relative to normal range",
      "PARAMCD": "_HGB",
      "PARAMN": 101.0,
      "PARCAT1": "HEM",
      "AVAL": 0.3,
      "BASE": null,
      "CHG": null,
      "A1LO": null,
      "A1HI": null,
      "R2A1LO": null,
      "R2A1HI": null,
      "BR2A1LO": null,
      "BR2A1HI": null,
      "ANL01FL": "",
      "ALBTRVAL": 5.9645399999999995,
      "ANRIND": "N",
      "BNRIND": "",
      "ABLFL": "",
      "AENTMTFL": "",
      "LBSEQ": 215.0,
      "LBNRIND": "NORMAL",
      "LBSTRESN": 8.750459999999999
    },
    {
      "STUDYID": "CDISCPILOT01",
      "SUBJID": "1015",
      "USUBJID": "01-701-1015",
      "TRTP": "Placebo",
      "TRTPN": 5.397605346934028e-79,
      "TRTA": "Placebo",
      "TRTAN": 5.397605346934028e-79,
      "TRTSDT": 19725.0,
      "TRTEDT": 19906.0,
      "AGE": 63.0,
      "AGEGR1": "<65",
      "AGEGR1N": 1.0,
      "RACE": "WHITE",
      "RACEN": 1.0,
      "SEX": "F",
      "COMP24FL": "Y",
      "DSRAEFL": "",
      "SAFFL": "Y",
      "AVISIT": "Week 16",
      "AVISITN": 16.0,
      "ADY": 126.0,
      "ADT": 19850.0,
      "VISIT": "WEEK 16",
      "VISITNUM": 10.0,
      "PARAM": "Hematocrit change from previous visit, relative to normal range",
      "PARAMCD": "_HCT",
      "PARAMN": 102.0,
      "PARCAT1": "HEM",
      "AVAL": 5.397605346934028e-79,
      "BASE": null,
      "CHG": null,
      "A1LO": null,
      "A1HI": null,
      "R2A1LO": null,
      "R2A1HI": null,
      "BR2A1LO": null,
      "BR2A1HI": null,
      "ANL01FL": "",
      "ALBTRVAL": 0.31,
      "ANRIND": "N",
      "BNRIND": "",
      "ABLFL": "",
      "AENTMTFL": "",
      "LBSEQ": 214.0,
      "LBNRIND": "NORMAL",
      "LBSTRESN": 0.41
    },
    {
      "STUDYID": "CDISCPILOT01",
      "SUBJID": "1015",
      "USUBJID": "01-701-1015",
      "TRTP": "Placebo",
      "TRTPN": 5.397605346934028e-79,
      "TRTA": "Placebo",
      "TRTAN": 5.397605346934028e-79,
      "TRTSDT": 19725.0,
      "TRTEDT": 19906.0,
      "AGE": 63.0,
      "AGEGR1": "<65",
      "AGEGR1N": 1.0,
      "RACE": "WHITE",
      "RACEN": 1.0,
      "SEX": "F",
      "COMP24FL": "Y",
      "DSRAEFL": "",
      "SAFFL": "Y",
      "AVISIT": "Week 16",
      "AVISITN": 16.0,
      "ADY": 126.0,
      "ADT": 19850.0,
      "VISIT": "WEEK 16",
      "VISITNUM": 10.0,
      "PARAM": "Ery. Mean Corpuscular Volume (fL) change from previous visit, relative to normal range",
      "PARAMCD": "_MCV",
      "PARAMN": 103.0,
      "PARCAT1": "HEM",
      "AVAL": -0.2,
      "BASE": null,
      "CHG": null,
      "A1LO": null,
      "A1HI": null,
      "R2A1LO": null,
      "R2A1HI": null,
      "BR2A1LO": null,
      "BR2A1HI": null,
      "ANL01FL": "",
      "ALBTRVAL": 71.0,
      "ANRIND": "N",
      "BNRIND": "",
      "ABLFL": "",
      "AENTMTFL": "",
      "LBSEQ": 220.0,
      "LBNRIND": "LOW",
      "LBSTRESN": 79.0
    },
    {
      "STUDYID": "CDISCPILOT01",
      "SUBJID": "1015",
      "USUBJID": "01-701-1015",
      "TRTP": "Placebo",
      "TRTPN": 5.397605346934028e-79,
      "TRTA": "Placebo",
      "TRTAN": 5.397605346934028e-79,
      "TRTSDT": 19725.0,
      "TRTEDT": 19906.0,
      "AGE": 63.0,
      "AGEGR1": "<65",
      "AGEGR1N": 1.0,
      "RACE": "WHITE",
      "RACEN": 1.0,
      "SEX": "F",
      "COMP24FL": "Y",
      "DSRAEFL": "",
      "SAFFL": "Y",
      "AVISIT": "Week 16",
      "AVISITN": 16.0,
      "ADY": 126.0,
      "ADT": 19850.0,
      "VISIT": "WEEK 16",
      "VISITNUM": 10.0,
      "PARAM": "Ery. Mean Corpuscular Hemoglobin (fmol(Fe)) change from previous visit, relative to normal range",
      "PARAMCD": "_MCH",
      "PARAMN": 104.0,
      "PARCAT1": "HEM",
      "AVAL": 5.397605346934028e-79,
      "BASE": null,
      "CHG": null,
      "A1LO": null,
      "A1HI": null,
      "R2A1LO": null,
      "R2A1HI": null,
      "BR2A1LO": null,
      "BR2A1HI": null,
      "ANL01FL": "",
      "ALBTRVAL": 1.4743800000000002,
      "ANRIND": "N",
      "BNRIND": "",
      "ABLFL": "",
      "AENTMTFL": "",
      "LBSEQ": 218.0,
      "LBNRIND": "NORMAL",
      "LBSTRESN": 1.67562
    },
    {
      "STUDYID": "CDISCPILOT01",
      "SUBJID": "1015",
      "USUBJID": "01-701-1015",
      "TRTP": "Placebo",
      "TRTPN": 5.397605346934028e-79,
      "TRTA": "Placebo",
      "TRTAN": 5.397605346934028e-79,
      "TRTSDT": 19725.0,
      "TRTEDT": 19906.0,
      "AGE": 63.0,
      "AGEGR1": "<65",
      "AGEGR1N": 1.0,
      "RACE": "WHITE",
      "RACEN": 1.0,
      "SEX": "F",
      "COMP24FL": "Y",
      "DSRAEFL": "",
      "SAFFL": "Y",
      "AVISIT": "Week 16",
      "AVISITN": 16.0,
      "ADY": 126.0,
      "ADT": 19850.0,
      "VISIT": "WEEK 16",
      "VISITNUM": 10.0,
      "PARAM": "Ery. Mean Corpuscular HGB Concentration (mmol/L) change from previous visit, relative to normal rang",
      "PARAMCD": "_MCHC",
      "PARAMN": 105.0,
      "PARCAT1": "HEM",
      "AVAL": 0.5,
      "BASE": null,
      "CHG": null,
      "A1LO": null,
      "A1HI": null,
      "R2A1LO": null,
      "R2A1HI": null,
      "BR2A1LO": null,
      "BR2A1HI": null,
      "ANL01FL": "",
      "ALBTRVAL": 14.279,
      "ANRIND": "N",
      "BNRIND": "",
      "ABLFL": "",
      "AENTMTFL": "",
      "LBSEQ": 219.0,
      "LBNRIND": "NORMAL",
      "LBSTRESN": 21.721
    },
    {
      "STUDYID": "CDISCPILOT01",
      "SUBJID": "1015",
      "USUBJID": "01-701-1015",
      "TRTP": "Placebo",
      "TRTPN": 5.397605346934028e-79,
      "TRTA": "Placebo",
      "TRTAN": 5.397605346934028e-79,
      "TRTSDT": 19725.0,
      "TRTEDT": 19906.0,
      "AGE": 63.0,
      "AGEGR1": "<65",
      "AGEGR1N": 1.0,
      "RACE": "WHITE",
      "RACEN": 1.0,
      "SEX": "F",
      "COMP24FL": "Y",
      "DSRAEFL": "",
      "SAFFL": "Y",
      "AVISIT": "Week 16",
      "AVISITN": 16.0,
      "ADY": 126.0,
      "ADT": 19850.0,
      "VISIT": "WEEK 16",
      "VISITNUM": 10.0,
      "PARAM": "Leukocytes (GI/L) change from previous visit, relative to normal range",
      "PARAMCD": "_WBC",
      "PARAMN": 106.0,
      "PARCAT1": "HEM",
      "AVAL": 0.1,
      "BASE": null,
      "CHG": null,
      "A1LO": null,
      "A1HI": null,
      "R2A1LO": null,
      "R2A1HI": null,
      "BR2A1LO": null,
      "BR2A1HI": null,
      "ANL01FL": "",
      "ALBTRVAL": 10.429999999999996,
      "ANRIND": "N",
      "BNRIND": "",
      "ABLFL": "",
      "AENTMTFL": "",
      "LBSEQ": 228.0,
      "LBNRIND": "NORMAL",
      "LBSTRESN": 5.62
    },
    {
      "STUDYID": "CDISCPILOT01",
      "SUBJID": "1015",
      "USUBJID": "01-701-1015",
      "TRTP": "Placebo",
      "TRTPN": 5.397605346934028e-79,
      "TRTA": "Placebo",
      "TRTAN": 5.397605346934028e-79,
      "TRTSDT": 19725.0,
      "TRTEDT": 19906.0,
      "AGE": 63.0,
      "AGEGR1": "<65",
      "AGEGR1N": 1.0,
      "RACE": "WHITE",
      "RACEN": 1.0,
      "SEX": "F",
      "COMP24FL": "Y",
      "DSRAEFL": "",
      "SAFFL": "Y",
      "AVISIT": "Week 16",
      "AVISITN": 16.0,
      "ADY": 126.0,
      "ADT": 19850.0,
      "VISIT": "WEEK 16",
      "VISITNUM": 10.0,
      "PARAM": "Lymphocytes (GI/L) change from previous visit, relative to normal range",
      "PARAMCD": "_LYM",
      "PARAMN": 107.0,
      "PARCAT1": "HEM",
      "AVAL": -0.1,
      "BASE": null,
      "CHG": null,
      "A1LO": null,
      "A1HI": null,
      "R2A1LO": null,
      "R2A1HI": null,
      "BR2A1LO": null,
      "BR2A1HI": null,
      "ANL01FL": "",
      "ALBTRVAL": 2.48,
      "ANRIND": "N",
      "BNRIND": "",
      "ABLFL": "",
      "AENTMTFL": "",
      "LBSEQ": 217.0,
      "LBNRIND": "NORMAL",
      "LBSTRESN": 2.02
    },
    {
      "STUDYID": "CDISCPILOT01",
      "SUBJID": "1015",
      "USUBJID": "01-701-1015",
      "TRTP": "Placebo",
      "TRTPN": 5.397605346934028e-79,
      "TRTA": "Placebo",
      "TRTAN": 5.397605346934028e-79,
      "TRTSDT": 19725.0,
      "TRTEDT": 19906.0,
      "AGE": 63.0,
      "AGEGR1": "<65",
      "AGEGR1N": 1.0,
      "RACE": "WHITE",
      "RACEN": 1.0,
      "SEX": "F",
      "COMP24FL": "Y",
      "DSRAEFL": "",
      "SAFFL": "Y",
      "AVISIT": "Week 16",
      "AVISITN": 16.0,
      "ADY": 126.0,
      "ADT": 19850.0,
      "VISIT": "WEEK 16",
      "VISITNUM": 10.0,
      "PARAM": "Monocytes (GI/L) change from previous visit, relative to normal range",
      "PARAMCD": "_MONO",
      "PARAMN": 108.0,
      "PARCAT1": "HEM",
      "AVAL": 0.2,
      "BASE": null,
      "CHG": null,
      "A1LO": null,
      "A1HI": null,
      "R2A1LO": null,
      "R2A1HI": null,
      "BR2A1LO": null,
      "BR2A1HI": null,
      "ANL01FL": "Y",
      "ALBTRVAL": 1.0499999999999998,
      "ANRIND": "N",
      "BNRIND": "",
      "ABLFL": "",
      "AENTMTFL": "",
      "LBSEQ": 221.0,
      "LBNRIND": "NORMAL",
      "LBSTRESN": 0.32999999999999996
    },
    {
      "STUDYID": "CDISCPILOT01",
      "SUBJID": "1015",
      "USUBJID": "01-701-1015",
      "TRTP": "Placebo",
      "TRTPN": 5.397605346934028e-79,
      "TRTA": "Placebo",
      "TRTAN": 5.397605346934028e-79,
      "TRTSDT": 19725.0,
      "TRTEDT": 19906.0,
      "AGE": 63.0,
      "AGEGR1": "<65",
      "AGEGR1N": 1.0,
      "RACE": "WHITE",
      "RACEN": 1.0,
      "SEX": "F",
      "COMP24FL": "Y",
      "DSRAEFL": "",
      "SAFFL": "Y",
      "AVISIT": "Week 16",
      "AVISITN": 16.0,
      "ADY": 126.0,
      "ADT": 19850.0,
      "VISIT": "WEEK 16",
      "VISITNUM": 10.0,
      "PARAM": "Eosinophils (GI/L) change from previous visit, relative to normal range",
      "PARAMCD": "_EOS",
      "PARAMN": 109.0,
      "PARCAT1": "HEM",
      "AVAL": -0.1,
      "BASE": null,
      "CHG": null,
      "A1LO": null,
      "A1HI": null,
      "R2A1LO": null,
      "R2A1HI": null,
      "BR2A1LO": null,
      "BR2A1HI": null,
      "ANL01FL": "",
      "ALBTRVAL": 0.765,
      "ANRIND": "N",
      "BNRIND": "",
      "ABLFL": "",
      "AENTMTFL": "",
      "LBSEQ": 211.0,
      "LBNRIND": "NORMAL",
      "LBSTRESN": 0.09
    },
    {
      "STUDYID": "CDISCPILOT01",
      "SUBJID": "1015",
      "USUBJID": "01-701-1015",
      "TRTP": "Placebo",
      "TRTPN": 5.397605346934028e-79,
      "TRTA": "Placebo",
      "TRTAN": 5.397605346934028e-79,
      "TRTSDT": 19725.0,
      "TRTEDT": 19906.0,
      "AGE": 63.0,
      "AGEGR1": "<65",
      "AGEGR1N": 1.0,
      "RACE": "WHITE",
      "RACEN": 1.0,
      "SEX": "F",
      "COMP24FL": "Y",
      "DSRAEFL": "",
      "SAFFL": "Y",
      "AVISIT": "Week 16",
      "AVISITN": 16.0,
      "ADY": 126.0,
      "ADT": 19850.0,
      "VISIT": "WEEK 16",
      "VISITNUM": 10.0,
      "PARAM": "Basophils (GI/L) change from previous visit, relative to normal range",
      "PARAMCD": "_BASO",
      "PARAMN": 110.0,
      "PARCAT1": "HEM",
      "AVAL": -0.1,
      "BASE": null,
      "CHG": null,
      "A1LO": null,
      "A1HI": null,
      "R2A1LO": null,
      "R2A1HI": null,
      "BR2A1LO": null,
      "BR2A1HI": null,
      "ANL01FL": "",
      "ALBTRVAL": 0.27,
      "ANRIND": "N",
      "BNRIND": "",
      "ABLFL": "",
      "AENTMTFL": "",
      "LBSEQ": 203.0,
      "LBNRIND": "NORMAL",
      "LBSTRESN": 0.03
    },
    {
      "STUDYID": "CDISCPILOT01",
      "SUBJID": "1015",
      "USUBJID": "01-701-1015",
      "TRTP": "Placebo",
      "TRTPN": 5.397605346934028e-79,
      "TRTA": "Placebo",
      "TRTAN": 5.397605346934028e-79,
      "TRTSDT": 19725.0,
      "TRTEDT": 19906.0,
      "AGE": 63.0,
      "AGEGR1": "<65",
      "AGEGR1N": 1.0,
      "RACE": "WHITE",
      "RACEN": 1.0,
      "SEX": "F",
      "COMP24FL": "Y",
      "DSRAEFL": "",
      "SAFFL": "Y",
      "AVISIT": "Week 16",
      "AVISITN": 16.0,
      "ADY": 126.0,
      "ADT": 19850.0,
      "VISIT": "WEEK 16",
      "VISITNUM": 10.0,
      "PARAM": "Platelet (GI/L) change from previous visit, relative to normal range",
      "PARAMCD": "_PLAT",
      "PARAMN": 111.0,
      "PARCAT1": "HEM",
      "AVAL": 5.397605346934028e-79,
      "BASE": null,
      "CHG": null,
      "A1LO": null,
      "A1HI": null,
      "R2A1LO": null,
      "R2A1HI": null,
      "BR2A1LO": null,
      "BR2A1HI": null,
      "ANL01FL": "",
      "ALBTRVAL": 325.0,
      "ANRIND": "N",
      "BNRIND": "",
      "ABLFL": "",
      "AENTMTFL": "",
      "LBSEQ": 224.0,
      "LBNRIND": "NORMAL",
      "LBSTRESN": 266.0
    },
    {
      "STUDYID": "CDISCPILOT01",
      "SUBJID": "1015",
      "USUBJID": "01-701-1015",
      "TRTP": "Placebo",
      "TRTPN": 5.397605346934028e-79,
      "TRTA": "Placebo",
      "TRTAN": 5.397605346934028e-79,
      "TRTSDT": 19725.0,
      "TRTEDT": 19906.0,
      "AGE": 63.0,
      "AGEGR1": "<65",
      "AGEGR1N": 1.0,
      "RACE": "WHITE",
      "RACEN": 1.0,
      "SEX": "F",
      "COMP24FL": "Y",
      "DSRAEFL": "",
      "SAFFL": "Y",
      "AVISIT": "Week 16",
      "AVISITN": 16.0,
      "ADY": 126.0,
      "ADT": 19850.0,
      "VISIT": "WEEK 16",
      "VISITNUM": 10.0,
      "PARAM": "Erythrocytes (TI/L) change from previous visit, relative to normal range",
      "PARAMCD": "_RBC",
      "PARAMN": 112.0,
      "PARCAT1": "HEM",
      "AVAL": 0.3,
      "BASE": null,
      "CHG": null,
      "A1LO": null,
      "A1HI": null,
      "R2A1LO": null,
      "R2A1HI": null,
      "BR2A1LO": null,
      "BR2A1HI": null,
      "ANL01FL": "",
      "ALBTRVAL": 3.249999999999999,
      "ANRIND": "N",
      "BNRIND": "",
      "ABLFL": "",
      "AENTMTFL": "",
      "LBSEQ": 226.0,
      "LBNRIND": "NORMAL",
      "LBSTRESN": 5.199999999999999
    },
    {
      "STUDYID": "CDISCPILOT01",
      "SUBJID": "1015",
      "USUBJID": "01-701-1015",
      "TRTP": "Placebo",
      "TRTPN": 5.397605346934028e-79,
      "TRTA": "Placebo",
      "TRTAN": 5.397605346934028e-79,
      "TRTSDT": 19725.0,
      "TRTEDT": 19906.0,
      "AGE": 63.0,
      "AGEGR1": "<65",
      "AGEGR1N": 1.0,
      "RACE": "WHITE",
      "RACEN": 1.0,
      "SEX": "F",
      "COMP24FL": "Y",
      "DSRAEFL": "",
      "SAFFL": "Y",
      "AVISIT": "Week 20",
      "AVISITN": 20.0,
      "ADY": 140.0,
      "ADT": 19864.0,
      "VISIT": "WEEK 20",
      "VISITNUM": 11.0,
      "PARAM": "Hemoglobin (mmol/L) change from previous visit, relative to normal range",
      "PARAMCD": "_HGB",
      "PARAMN": 101.0,
      "PARCAT1": "HEM",
      "AVAL": -0.2,
      "BASE": null,
      "CHG": null,
      "A1LO": null,
      "A1HI": null,
      "R2A1LO": null,
      "R2A1HI": null,
      "BR2A1LO": null,
      "BR2A1HI": null,
      "ANL01FL": "",
      "ALBTRVAL": 6.212779999999999,
      "ANRIND": "N",
      "BNRIND": "",
      "ABLFL": "",
      "AENTMTFL": "",
      "LBSEQ": 245.0,
      "LBNRIND": "NORMAL",
      "LBSTRESN": 8.50222
    },
    {
      "STUDYID": "CDISCPILOT01",
      "SUBJID": "1015",
      "USUBJID": "01-701-1015",
      "TRTP": "Placebo",
      "TRTPN": 5.397605346934028e-79,
      "TRTA": "Placebo",
      "TRTAN": 5.397605346934028e-79,
      "TRTSDT": 19725.0,
      "TRTEDT": 19906.0,
      "AGE": 63.0,
      "AGEGR1": "<65",
      "AGEGR1N": 1.0,
      "RACE": "WHITE",
      "RACEN": 1.0,
      "SEX": "F",
      "COMP24FL": "Y",
      "DSRAEFL": "",
      "SAFFL": "Y",
      "AVISIT": "Week 20",
      "AVISITN": 20.0,
      "ADY": 140.0,
      "ADT": 19864.0,
      "VISIT": "WEEK 20",
      "VISITNUM": 11.0,
      "PARAM": "Hematocrit change from previous visit, relative to normal range",
      "PARAMCD": "_HCT",
      "PARAMN": 102.0,
      "PARCAT1": "HEM",
      "AVAL": -0.1,
      "BASE": null,
      "CHG": null,
      "A1LO": null,
      "A1HI": null,
      "R2A1LO": null,
      "R2A1HI": null,
      "BR2A1LO": null,
      "BR2A1HI": null,
      "ANL01FL": "",
      "ALBTRVAL": 0.32,
      "ANRIND": "N",
      "BNRIND": "",
      "ABLFL": "",
      "AENTMTFL": "",
      "LBSEQ": 244.0,
      "LBNRIND": "NORMAL",
      "LBSTRESN": 0.39999999999999997
    },
    {
      "STUDYID": "CDISCPILOT01",
      "SUBJID": "1015",
      "USUBJID": "01-701-1015",
      "TRTP": "Placebo",
      "TRTPN": 5.397605346934028e-79,
      "TRTA": "Placebo",
      "TRTAN": 5.397605346934028e-79,
      "TRTSDT": 19725.0,
      "TRTEDT": 19906.0,
      "AGE": 63.0,
      "AGEGR1": "<65",
      "AGEGR1N": 1.0,
      "RACE": "WHITE",
      "RACEN": 1.0,
      "SEX": "F",
      "COMP24FL": "Y",
      "DSRAEFL": "",
      "SAFFL": "Y",
      "AVISIT": "Week 20",
      "AVISITN": 20.0,
      "ADY": 140.0,
      "ADT": 19864.0,
      "VISIT": "WEEK 20",
      "VISITNUM": 11.0,
      "PARAM": "Ery. Mean Corpuscular Volume (fL) change from previous visit, relative to normal range",
      "PARAMCD": "_MCV",
      "PARAMN": 103.0,
      "PARCAT1": "HEM",
      "AVAL": 0.1,
      "BASE": null,
      "CHG": null,
      "A1LO": null,
      "A1HI": null,
      "R2A1LO": null,
      "R2A1HI": null,
      "BR2A1LO": null,
      "BR2A1HI": null,
      "ANL01FL": "",
      "ALBTRVAL": 70.0,
      "ANRIND": "N",
      "BNRIND": "",
      "ABLFL": "",
      "AENTMTFL": "",
      "LBSEQ": 250.0,
      "LBNRIND": "NORMAL",
      "LBSTRESN": 80.0
    },
    {
      "STUDYID": "CDISCPILOT01",
      "SUBJID": "1015",
      "USUBJID": "01-701-1015",
      "TRTP": "Placebo",
      "TRTPN": 5.397605346934028e-79,
      "TRTA": "Placebo",
      "TRTAN": 5.397605346934028e-79,
      "TRTSDT": 19725.0,
      "TRTEDT": 19906.0,
      "AGE": 63.0,
      "AGEGR1": "<65",
      "AGEGR1N": 1.0,
      "RACE": "WHITE",
      "RACEN": 1.0,
      "SEX": "F",
      "COMP24FL": "Y",
      "DSRAEFL": "",
      "SAFFL": "Y",
      "AVISIT": "Week 20",
      "AVISITN": 20.0,
      "ADY": 140.0,
      "ADT": 19864.0,
      "VISIT": "WEEK 20",
      "VISITNUM": 11.0,
      "PARAM": "Ery. Mean Corpuscular Hemoglobin (fmol(Fe)) change from previous visit, relative to normal range",
      "PARAMCD": "_MCH",
      "PARAMN": 104.0,
      "PARCAT1": "HEM",
      "AVAL": 0.2,
      "BASE": null,
      "CHG": null,
      "A1LO": null,
      "A1HI": null,
      "R2A1LO": null,
      "R2A1HI": null,
      "BR2A1LO": null,
      "BR2A1HI": null,
      "ANL01FL": "Y",
      "ALBTRVAL": 1.4123200000000005,
      "ANRIND": "N",
      "BNRIND": "",
      "ABLFL": "",
      "AENTMTFL": "",
      "LBSEQ": 248.0,
      "LBNRIND": "NORMAL",
      "LBSTRESN": 1.73768
    },
    {
      "STUDYID": "CDISCPILOT01",
      "SUBJID": "1015",
      "USUBJID": "01-701-1015",
      "TRTP": "Placebo",
      "TRTPN": 5.397605346934028e-79,
      "TRTA": "Placebo",
      "TRTAN": 5.397605346934028e-79,
      "TRTSDT": 19725.0,
      "TRTEDT": 19906.0,
      "AGE": 63.0,
      "AGEGR1": "<65",
      "AGEGR1N": 1.0,
      "RACE": "WHITE",
      "RACEN": 1.0,
      "SEX": "F",
      "COMP24FL": "Y",
      "DSRAEFL": "",
      "SAFFL": "Y",
      "AVISIT": "Week 20",
      "AVISITN": 20.0,
      "ADY": 140.0,
      "ADT": 19864.0,
      "VISIT": "WEEK 20",
      "VISITNUM": 11.0,
      "PARAM": "Ery. Mean Corpuscular HGB Concentration (mmol/L) change from previous visit, relative to normal rang",
      "PARAMCD": "_MCHC",
      "PARAMN": 105.0,
      "PARCAT1": "HEM",
      "AVAL": 5.397605346934028e-79,
      "BASE": null,
      "CHG": null,
      "A1LO": null,
      "A1HI": null,
      "R2A1LO": null,
      "R2A1HI": null,
      "BR2A1LO": null,
      "BR2A1HI": null,
      "ANL01FL": "",
      "ALBTRVAL": 14.279,
      "ANRIND": "N",
      "BNRIND": "",
      "ABLFL": "",
      "AENTMTFL": "",
      "LBSEQ": 249.0,
      "LBNRIND": "NORMAL",
      "LBSTRESN": 21.721
    },
    {
      "STUDYID": "CDISCPILOT01",
      "SUBJID": "1015",
      "USUBJID": "01-701-1015",
      "TRTP": "Placebo",
      "TRTPN": 5.397605346934028e-79,
      "TRTA": "Placebo",
      "TRTAN": 5.397605346934028e-79,
      "TRTSDT": 19725.0,
      "TRTEDT": 19906.0,
      "AGE": 63.0,
      "AGEGR1": "<65",
      "AGEGR1N": 1.0,
      "RACE": "WHITE",
      "RACEN": 1.0,
      "SEX": "F",
      "COMP24FL": "Y",
      "DSRAEFL": "",
      "SAFFL": "Y",
      "AVISIT": "Week 20",
      "AVISITN": 20.0,
      "ADY": 140.0,
      "ADT": 19864.0,
      "VISIT": "WEEK 20",
      "VISITNUM": 11.0,
      "PARAM": "Leukocytes (GI/L) change from previous visit, relative to normal range",
      "PARAMCD": "_WBC",
      "PARAMN": 106.0,
      "PARCAT1": "HEM",
      "AVAL": -0.4,
      "BASE": null,
      "CHG": null,
      "A1LO": null,
      "A1HI": null,
      "R2A1LO": null,
      "R2A1HI": null,
      "BR2A1LO": null,
      "BR2A1HI": null,
      "ANL01FL": "",
      "ALBTRVAL": 11.689999999999998,
      "ANRIND": "N",
      "BNRIND": "",
      "ABLFL": "",
      "AENTMTFL": "",
      "LBSEQ": 258.0,
      "LBNRIND": "NORMAL",
      "LBSTRESN": 4.359999999999999
    },
    {
      "STUDYID": "CDISCPILOT01",
      "SUBJID": "1015",
      "USUBJID": "01-701-1015",
      "TRTP": "Placebo",
      "TRTPN": 5.397605346934028e-79,
      "TRTA": "Placebo",
      "TRTAN": 5.397605346934028e-79,
      "TRTSDT": 19725.0,
      "TRTEDT": 19906.0,
      "AGE": 63.0,
      "AGEGR1": "<65",
      "AGEGR1N": 1.0,
      "RACE": "WHITE",
      "RACEN": 1.0,
      "SEX": "F",
      "COMP24FL": "Y",
      "DSRAEFL": "",
      "SAFFL": "Y",
      "AVISIT": "Week 20",
      "AVISITN": 20.0,
      "ADY": 140.0,
      "ADT": 19864.0,
      "VISIT": "WEEK 20",
      "VISITNUM": 11.0,
      "PARAM": "Lymphocytes (GI/L) change from previous visit, relative to normal range",
      "PARAMCD": "_LYM",
      "PARAMN": 107.0,
      "PARCAT1": "HEM",
      "AVAL": -0.2,
      "BASE": null,
      "CHG": null,
      "A1LO": null,
      "A1HI": null,
      "R2A1LO": null,
      "R2A1HI": null,
      "BR2A1LO": null,
      "BR2A1HI": null,
      "ANL01FL": "",
      "ALBTRVAL": 2.7199999999999998,
      "ANRIND": "N",
      "BNRIND": "",
      "ABLFL": "",
      "AENTMTFL": "",
      "LBSEQ": 247.0,
      "LBNRIND": "NORMAL",
      "LBSTRESN": 1.78
    },
    {
      "STUDYID": "CDISCPILOT01",
      "SUBJID": "1015",
      "USUBJID": "01-701-1015",
      "TRTP": "Placebo",
      "TRTPN": 5.397605346934028e-79,
      "TRTA": "Placebo",
      "TRTAN": 5.397605346934028e-79,
      "TRTSDT": 19725.0,
      "TRTEDT": 19906.0,
      "AGE": 63.0,
      "AGEGR1": "<65",
      "AGEGR1N": 1.0,
      "RACE": "WHITE",
      "RACEN": 1.0,
      "SEX": "F",
      "COMP24FL": "Y",
      "DSRAEFL": "",
      "SAFFL": "Y",
      "AVISIT": "Week 20",
      "AVISITN": 20.0,
      "ADY": 140.0,
      "ADT": 19864.0,
      "VISIT": "WEEK 20",
      "VISITNUM": 11.0,
      "PARAM": "Monocytes (GI/L) change from previous visit, relative to normal range",
      "PARAMCD": "_MONO",
      "PARAMN": 108.0,
      "PARCAT1": "HEM",
      "AVAL": -0.1,
      "BASE": null,
      "CHG": null,
      "A1LO": null,
      "A1HI": null,
      "R2A1LO": null,
      "R2A1HI": null,
      "BR2A1LO": null,
      "BR2A1HI": null,
      "ANL01FL": "",
      "ALBTRVAL": 1.0999999999999999,
      "ANRIND": "N",
      "BNRIND": "",
      "ABLFL": "",
      "AENTMTFL": "",
      "LBSEQ": 251.0,
      "LBNRIND": "NORMAL",
      "LBSTRESN": 0.27999999999999997
    },
    {
      "STUDYID": "CDISCPILOT01",
      "SUBJID": "1015",
      "USUBJID": "01-701-1015",
      "TRTP": "Placebo",
      "TRTPN": 5.397605346934028e-79,
      "TRTA": "Placebo",
      "TRTAN": 5.397605346934028e-79,
      "TRTSDT": 19725.0,
      "TRTEDT": 19906.0,
      "AGE": 63.0,
      "AGEGR1": "<65",
      "AGEGR1N": 1.0,
      "RACE": "WHITE",
      "RACEN": 1.0,
      "SEX": "F",
      "COMP24FL": "Y",
      "DSRAEFL": "",
      "SAFFL": "Y",
      "AVISIT": "Week 20",
      "AVISITN": 20.0,
      "ADY": 140.0,
      "ADT": 19864.0,
      "VISIT": "WEEK 20",
      "VISITNUM": 11.0,
      "PARAM": "Eosinophils (GI/L) change from previous visit, relative to normal range",
      "PARAMCD": "_EOS",
      "PARAMN": 109.0,
      "PARCAT1": "HEM",
      "AVAL": -0.1,
      "BASE": null,
      "CHG": null,
      "A1LO": null,
      "A1HI": null,
      "R2A1LO": null,
      "R2A1HI": null,
      "BR2A1LO": null,
      "BR2A1HI": null,
      "ANL01FL": "",
      "ALBTRVAL": 0.7949999999999999,
      "ANRIND": "N",
      "BNRIND": "",
      "ABLFL": "",
      "AENTMTFL": "",
      "LBSEQ": 241.0,
      "LBNRIND": "NORMAL",
      "LBSTRESN": 0.06
    },
    {
      "STUDYID": "CDISCPILOT01",
      "SUBJID": "1015",
      "USUBJID": "01-701-1015",
      "TRTP": "Placebo",
      "TRTPN": 5.397605346934028e-79,
      "TRTA": "Placebo",
      "TRTAN": 5.397605346934028e-79,
      "TRTSDT": 19725.0,
      "TRTEDT": 19906.0,
      "AGE": 63.0,
      "AGEGR1": "<65",
      "AGEGR1N": 1.0,
      "RACE": "WHITE",
      "RACEN": 1.0,
      "SEX": "F",
      "COMP24FL": "Y",
      "DSRAEFL": "",
      "SAFFL": "Y",
      "AVISIT": "Week 20",
      "AVISITN": 20.0,
      "ADY": 140.0,
      "ADT": 19864.0,
      "VISIT": "WEEK 20",
      "VISITNUM": 11.0,
      "PARAM": "Basophils (GI/L) change from previous visit, relative to normal range",
      "PARAMCD": "_BASO",
      "PARAMN": 110.0,
      "PARCAT1": "HEM",
      "AVAL": 5.397605346934028e-79,
      "BASE": null,
      "CHG": null,
      "A1LO": null,
      "A1HI": null,
      "R2A1LO": null,
      "R2A1HI": null,
      "BR2A1LO": null,
      "BR2A1HI": null,
      "ANL01FL": "",
      "ALBTRVAL": 0.27,
      "ANRIND": "N",
      "BNRIND": "",
      "ABLFL": "",
      "AENTMTFL": "",
      "LBSEQ": 233.0,
      "LBNRIND": "NORMAL",
      "LBSTRESN": 0.03
    },
    {
      "STUDYID": "CDISCPILOT01",
      "SUBJID": "1015",
      "USUBJID": "01-701-1015",
      "TRTP": "Placebo",
      "TRTPN": 5.397605346934028e-79,
      "TRTA": "Placebo",
      "TRTAN": 5.397605346934028e-79,
      "TRTSDT": 19725.0,
      "TRTEDT": 19906.0,
      "AGE": 63.0,
      "AGEGR1": "<65",
      "AGEGR1N": 1.0,
      "RACE": "WHITE",
      "RACEN": 1.0,
      "SEX": "F",
      "COMP24FL": "Y",
      "DSRAEFL": "",
      "SAFFL": "Y",
      "AVISIT": "Week 20",
      "AVISITN": 20.0,
      "ADY": 140.0,
      "ADT": 19864.0,
      "VISIT": "WEEK 20",
      "VISITNUM": 11.0,
      "PARAM": "Platelet (GI/L) change from previous visit, relative to normal range",
      "PARAMCD": "_PLAT",
      "PARAMN": 111.0,
      "PARCAT1": "HEM",
      "AVAL": -0.3,
      "BASE": null,
      "CHG": null,
      "A1LO": null,
      "A1HI": null,
      "R2A1LO": null,
      "R2A1HI": null,
      "BR2A1LO": null,
      "BR2A1HI": null,
      "ANL01FL": "",
      "ALBTRVAL": 358.0,
      "ANRIND": "N",
      "BNRIND": "",
      "ABLFL": "",
      "AENTMTFL": "",
      "LBSEQ": 254.0,
      "LBNRIND": "NORMAL",
      "LBSTRESN": 233.0
    },
    {
      "STUDYID": "CDISCPILOT01",
      "SUBJID": "1015",
      "USUBJID": "01-701-1015",
      "TRTP": "Placebo",
      "TRTPN": 5.397605346934028e-79,
      "TRTA": "Placebo",
      "TRTAN": 5.397605346934028e-79,
      "TRTSDT": 19725.0,
      "TRTEDT": 19906.0,
      "AGE": 63.0,
      "AGEGR1": "<65",
      "AGEGR1N": 1.0,
      "RACE": "WHITE",
      "RACEN": 1.0,
      "SEX": "F",
      "COMP24FL": "Y",
      "DSRAEFL": "",
      "SAFFL": "Y",
      "AVISIT": "Week 20",
      "AVISITN": 20.0,
      "ADY": 140.0,
      "ADT": 19864.0,
      "VISIT": "WEEK 20",
      "VISITNUM": 11.0,
      "PARAM": "Erythrocytes (TI/L) change from previous visit, relative to normal range",
      "PARAMCD": "_RBC",
      "PARAMN": 112.0,
      "PARCAT1": "HEM",
      "AVAL": -0.4,
      "BASE": null,
      "CHG": null,
      "A1LO": null,
      "A1HI": null,
      "R2A1LO": null,
      "R2A1HI": null,
      "BR2A1LO": null,
      "BR2A1HI": null,
      "ANL01FL": "",
      "ALBTRVAL": 3.3500000000000005,
      "ANRIND": "N",
      "BNRIND": "",
      "ABLFL": "",
      "AENTMTFL": "",
      "LBSEQ": 256.0,
      "LBNRIND": "NORMAL",
      "LBSTRESN": 4.8999999999999995
    },
    {
      "STUDYID": "CDISCPILOT01",
      "SUBJID": "1015",
      "USUBJID": "01-701-1015",
      "TRTP": "Placebo",
      "TRTPN": 5.397605346934028e-79,
      "TRTA": "Placebo",
      "TRTAN": 5.397605346934028e-79,
      "TRTSDT": 19725.0,
      "TRTEDT": 19906.0,
      "AGE": 63.0,
      "AGEGR1": "<65",
      "AGEGR1N": 1.0,
      "RACE": "WHITE",
      "RACEN": 1.0,
      "SEX": "F",
      "COMP24FL": "Y",
      "DSRAEFL": "",
      "SAFFL": "Y",
      "AVISIT": "Week 24",
      "AVISITN": 24.0,
      "ADY": 168.0,
      "ADT": 19892.0,
      "VISIT": "WEEK 24",
      "VISITNUM": 12.0,
      "PARAM": "Hemoglobin (mmol/L) change from previous visit, relative to normal range",
      "PARAMCD": "_HGB",
      "PARAMN": 101.0,
      "PARCAT1": "HEM",
      "AVAL": 0.1,
      "BASE": null,
      "CHG": null,
      "A1LO": null,
      "A1HI": null,
      "R2A1LO": null,
      "R2A1HI": null,
      "BR2A1LO": null,
      "BR2A1HI": null,
      "ANL01FL": "",
      "ALBTRVAL": 6.026599999999998,
      "ANRIND": "N",
      "BNRIND": "",
      "ABLFL": "",
      "AENTMTFL": "Y",
      "LBSEQ": 276.0,
      "LBNRIND": "NORMAL",
      "LBSTRESN": 8.6884
    },
    {
      "STUDYID": "CDISCPILOT01",
      "SUBJID": "1015",
      "USUBJID": "01-701-1015",
      "TRTP": "Placebo",
      "TRTPN": 5.397605346934028e-79,
      "TRTA": "Placebo",
      "TRTAN": 5.397605346934028e-79,
      "TRTSDT": 19725.0,
      "TRTEDT": 19906.0,
      "AGE": 63.0,
      "AGEGR1": "<65",
      "AGEGR1N": 1.0,
      "RACE": "WHITE",
      "RACEN": 1.0,
      "SEX": "F",
      "COMP24FL": "Y",
      "DSRAEFL": "",
      "SAFFL": "Y",
      "AVISIT": "End of Treatment",
      "AVISITN": 99.0,
      "ADY": 168.0,
      "ADT": 19892.0,
      "VISIT": "WEEK 24",
      "VISITNUM": 12.0,
      "PARAM": "Hemoglobin (mmol/L) change from previous visit, relative to normal range",
      "PARAMCD": "_HGB",
      "PARAMN": 101.0,
      "PARCAT1": "HEM",
      "AVAL": 0.1,
      "BASE": null,
      "CHG": null,
      "A1LO": null,
      "A1HI": null,
      "R2A1LO": null,
      "R2A1HI": null,
      "BR2A1LO": null,
      "BR2A1HI": null,
      "ANL01FL": "",
      "ALBTRVAL": 6.026599999999998,
      "ANRIND": "N",
      "BNRIND": "",
      "ABLFL": "",
      "AENTMTFL": "Y",
      "LBSEQ": 276.0,
      "LBNRIND": "NORMAL",
      "LBSTRESN": 8.6884
    },
    {
      "STUDYID": "CDISCPILOT01",
      "SUBJID": "1015",
      "USUBJID": "01-701-1015",
      "TRTP": "Placebo",
      "TRTPN": 5.397605346934028e-79,
      "TRTA": "Placebo",
      "TRTAN": 5.397605346934028e-79,
      "TRTSDT": 19725.0,
      "TRTEDT": 19906.0,
      "AGE": 63.0,
      "AGEGR1": "<65",
      "AGEGR1N": 1.0,
      "RACE": "WHITE",
      "RACEN": 1.0,
      "SEX": "F",
      "COMP24FL": "Y",
      "DSRAEFL": "",
      "SAFFL": "Y",
      "AVISIT": "Week 24",
      "AVISITN": 24.0,
      "ADY": 168.0,
      "ADT": 19892.0,
      "VISIT": "WEEK 24",
      "VISITNUM": 12.0,
      "PARAM": "Hematocrit change from previous visit, relative to normal range",
      "PARAMCD": "_HCT",
      "PARAMN": 102.0,
      "PARCAT1": "HEM",
      "AVAL": 0.6,
      "BASE": null,
      "CHG": null,
      "A1LO": null,
      "A1HI": null,
      "R2A1LO": null,
      "R2A1HI": null,
      "BR2A1LO": null,
      "BR2A1HI": null,
      "ANL01FL": "",
      "ALBTRVAL": 0.27999999999999997,
      "ANRIND": "N",
      "BNRIND": "",
      "ABLFL": "",
      "AENTMTFL": "Y",
      "LBSEQ": 275.0,
      "LBNRIND": "NORMAL",
      "LBSTRESN": 0.44
    },
    {
      "STUDYID": "CDISCPILOT01",
      "SUBJID": "1015",
      "USUBJID": "01-701-1015",
      "TRTP": "Placebo",
      "TRTPN": 5.397605346934028e-79,
      "TRTA": "Placebo",
      "TRTAN": 5.397605346934028e-79,
      "TRTSDT": 19725.0,
      "TRTEDT": 19906.0,
      "AGE": 63.0,
      "AGEGR1": "<65",
      "AGEGR1N": 1.0,
      "RACE": "WHITE",
      "RACEN": 1.0,
      "SEX": "F",
      "COMP24FL": "Y",
      "DSRAEFL": "",
      "SAFFL": "Y",
      "AVISIT": "End of Treatment",
      "AVISITN": 99.0,
      "ADY": 168.0,
      "ADT": 19892.0,
      "VISIT": "WEEK 24",
      "VISITNUM": 12.0,
      "PARAM": "Hematocrit change from previous visit, relative to normal range",
      "PARAMCD": "_HCT",
      "PARAMN": 102.0,
      "PARCAT1": "HEM",
      "AVAL": 0.6,
      "BASE": null,
      "CHG": null,
      "A1LO": null,
      "A1HI": null,
      "R2A1LO": null,
      "R2A1HI": null,
      "BR2A1LO": null,
      "BR2A1HI": null,
      "ANL01FL": "",
      "ALBTRVAL": 0.27999999999999997,
      "ANRIND": "N",
      "BNRIND": "",
      "ABLFL": "",
      "AENTMTFL": "Y",
      "LBSEQ": 275.0,
      "LBNRIND": "NORMAL",
      "LBSTRESN": 0.44
    },
    {
      "STUDYID": "CDISCPILOT01",
      "SUBJID": "1015",
      "USUBJID": "01-701-1015",
      "TRTP": "Placebo",
      "TRTPN": 5.397605346934028e-79,
      "TRTA": "Placebo",
      "TRTAN": 5.397605346934028e-79,
      "TRTSDT": 19725.0,
      "TRTEDT": 19906.0,
      "AGE": 63.0,
      "AGEGR1": "<65",
      "AGEGR1N": 1.0,
      "RACE": "WHITE",
      "RACEN": 1.0,
      "SEX": "F",
      "COMP24FL": "Y",
      "DSRAEFL": "",
      "SAFFL": "Y",
      "AVISIT": "Week 24",
      "AVISITN": 24.0,
      "ADY": 168.0,
      "ADT": 19892.0,
      "VISIT": "WEEK 24",
      "VISITNUM": 12.0,
      "PARAM": "Ery. Mean Corpuscular Volume (fL) change from previous visit, relative to normal range",
      "PARAMCD": "_MCV",
      "PARAMN": 103.0,
      "PARCAT1": "HEM",
      "AVAL": 0.2,
      "BASE": null,
      "CHG": null,
      "A1LO": null,
      "A1HI": null,
      "R2A1LO": null,
      "R2A1HI": null,
      "BR2A1LO": null,
      "BR2A1HI": null,
      "ANL01FL": "",
      "ALBTRVAL": 68.0,
      "ANRIND": "N",
      "BNRIND": "",
      "ABLFL": "",
      "AENTMTFL": "Y",
      "LBSEQ": 282.0,
      "LBNRIND": "NORMAL",
      "LBSTRESN": 82.0
    },
    {
      "STUDYID": "CDISCPILOT01",
      "SUBJID": "1015",
      "USUBJID": "01-701-1015",
      "TRTP": "Placebo",
      "TRTPN": 5.397605346934028e-79,
      "TRTA": "Placebo",
      "TRTAN": 5.397605346934028e-79,
      "TRTSDT": 19725.0,
      "TRTEDT": 19906.0,
      "AGE": 63.0,
      "AGEGR1": "<65",
      "AGEGR1N": 1.0,
      "RACE": "WHITE",
      "RACEN": 1.0,
      "SEX": "F",
      "COMP24FL": "Y",
      "DSRAEFL": "",
      "SAFFL": "Y",
      "AVISIT": "End of Treatment",
      "AVISITN": 99.0,
      "ADY": 168.0,
      "ADT": 19892.0,
      "VISIT": "WEEK 24",
      "VISITNUM": 12.0,
      "PARAM": "Ery. Mean Corpuscular Volume (fL) change from previous visit, relative to normal range",
      "PARAMCD": "_MCV",
      "PARAMN": 103.0,
      "PARCAT1": "HEM",
      "AVAL": 0.2,
      "BASE": null,
      "CHG": null,
      "A1LO": null,
      "A1HI": null,
      "R2A1LO": null,
      "R2A1HI": null,
      "BR2A1LO": null,
      "BR2A1HI": null,
      "ANL01FL": "",
      "ALBTRVAL": 68.0,
      "ANRIND": "N",
      "BNRIND": "",
      "ABLFL": "",
      "AENTMTFL": "Y",
      "LBSEQ": 282.0,
      "LBNRIND": "NORMAL",
      "LBSTRESN": 82.0
    },
    {
      "STUDYID": "CDISCPILOT01",
      "SUBJID": "1015",
      "USUBJID": "01-701-1015",
      "TRTP": "Placebo",
      "TRTPN": 5.397605346934028e-79,
      "TRTA": "Placebo",
      "TRTAN": 5.397605346934028e-79,
      "TRTSDT": 19725.0,
      "TRTEDT": 19906.0,
      "AGE": 63.0,
      "AGEGR1": "<65",
      "AGEGR1N": 1.0,
      "RACE": "WHITE",
      "RACEN": 1.0,
      "SEX": "F",
      "COMP24FL": "Y",
      "DSRAEFL": "",
      "SAFFL": "Y",
      "AVISIT": "Week 24",
      "AVISITN": 24.0,
      "ADY": 168.0,
      "ADT": 19892.0,
      "VISIT": "WEEK 24",
      "VISITNUM": 12.0,
      "PARAM": "Ery. Mean Corpuscular Hemoglobin (fmol(Fe)) change from previous visit, relative to normal range",
      "PARAMCD": "_MCH",
      "PARAMN": 104.0,
      "PARCAT1": "HEM",
      "AVAL": -0.2,
      "BASE": null,
      "CHG": null,
      "A1LO": null,
      "A1HI": null,
      "R2A1LO": null,
      "R2A1HI": null,
      "BR2A1LO": null,
      "BR2A1HI": null,
      "ANL01FL": "",
      "ALBTRVAL": 1.4743800000000002,
      "ANRIND": "N",
      "BNRIND": "",
      "ABLFL": "",
      "AENTMTFL": "Y",
      "LBSEQ": 280.0,
      "LBNRIND": "NORMAL",
      "LBSTRESN": 1.67562
    },
    {
      "STUDYID": "CDISCPILOT01",
      "SUBJID": "1015",
      "USUBJID": "01-701-1015",
      "TRTP": "Placebo",
      "TRTPN": 5.397605346934028e-79,
      "TRTA": "Placebo",
      "TRTAN": 5.397605346934028e-79,
      "TRTSDT": 19725.0,
      "TRTEDT": 19906.0,
      "AGE": 63.0,
      "AGEGR1": "<65",
      "AGEGR1N": 1.0,
      "RACE": "WHITE",
      "RACEN": 1.0,
      "SEX": "F",
      "COMP24FL": "Y",
      "DSRAEFL": "",
      "SAFFL": "Y",
      "AVISIT": "End of Treatment",
      "AVISITN": 99.0,
      "ADY": 168.0,
      "ADT": 19892.0,
      "VISIT": "WEEK 24",
      "VISITNUM": 12.0,
      "PARAM": "Ery. Mean Corpuscular Hemoglobin (fmol(Fe)) change from previous visit, relative to normal range",
      "PARAMCD": "_MCH",
      "PARAMN": 104.0,
      "PARCAT1": "HEM",
      "AVAL": -0.2,
      "BASE": null,
      "CHG": null,
      "A1LO": null,
      "A1HI": null,
      "R2A1LO": null,
      "R2A1HI": null,
      "BR2A1LO": null,
      "BR2A1HI": null,
      "ANL01FL": "",
      "ALBTRVAL": 1.4743800000000002,
      "ANRIND": "N",
      "BNRIND": "",
      "ABLFL": "",
      "AENTMTFL": "Y",
      "LBSEQ": 280.0,
      "LBNRIND": "NORMAL",
      "LBSTRESN": 1.67562
    },
    {
      "STUDYID": "CDISCPILOT01",
      "SUBJID": "1015",
      "USUBJID": "01-701-1015",
      "TRTP": "Placebo",
      "TRTPN": 5.397605346934028e-79,
      "TRTA": "Placebo",
      "TRTAN": 5.397605346934028e-79,
      "TRTSDT": 19725.0,
      "TRTEDT": 19906.0,
      "AGE": 63.0,
      "AGEGR1": "<65",
      "AGEGR1N": 1.0,
      "RACE": "WHITE",
      "RACEN": 1.0,
      "SEX": "F",
      "COMP24FL": "Y",
      "DSRAEFL": "",
      "SAFFL": "Y",
      "AVISIT": "Week 24",
      "AVISITN": 24.0,
      "ADY": 168.0,
      "ADT": 19892.0,
      "VISIT": "WEEK 24",
      "VISITNUM": 12.0,
      "PARAM": "Ery. Mean Corpuscular HGB Concentration (mmol/L) change from previous visit, relative to normal rang",
      "PARAMCD": "_MCHC",
      "PARAMN": 105.0,
      "PARCAT1": "HEM",
      "AVAL": -0.7,
      "BASE": null,
      "CHG": null,
      "A1LO": null,
      "A1HI": null,
      "R2A1LO": null,
      "R2A1HI": null,
      "BR2A1LO": null,
      "BR2A1HI": null,
      "ANL01FL": "Y",
      "ALBTRVAL": 16.1408,
      "ANRIND": "N",
      "BNRIND": "",
      "ABLFL": "",
      "AENTMTFL": "Y",
      "LBSEQ": 281.0,
      "LBNRIND": "NORMAL",
      "LBSTRESN": 19.8592
    },
    {
      "STUDYID": "CDISCPILOT01",
      "SUBJID": "1015",
      "USUBJID": "01-701-1015",
      "TRTP": "Placebo",
      "TRTPN": 5.397605346934028e-79,
      "TRTA": "Placebo",
      "TRTAN": 5.397605346934028e-79,
      "TRTSDT": 19725.0,
      "TRTEDT": 19906.0,
      "AGE": 63.0,
      "AGEGR1": "<65",
      "AGEGR1N": 1.0,
      "RACE": "WHITE",
      "RACEN": 1.0,
      "SEX": "F",
      "COMP24FL": "Y",
      "DSRAEFL": "",
      "SAFFL": "Y",
      "AVISIT": "End of Treatment",
      "AVISITN": 99.0,
      "ADY": 168.0,
      "ADT": 19892.0,
      "VISIT": "WEEK 24",
      "VISITNUM": 12.0,
      "PARAM": "Ery. Mean Corpuscular HGB Concentration (mmol/L) change from previous visit, relative to normal rang",
      "PARAMCD": "_MCHC",
      "PARAMN": 105.0,
      "PARCAT1": "HEM",
      "AVAL": -0.7,
      "BASE": null,
      "CHG": null,
      "A1LO": null,
      "A1HI": null,
      "R2A1LO": null,
      "R2A1HI": null,
      "BR2A1LO": null,
      "BR2A1HI": null,
      "ANL01FL": "Y",
      "ALBTRVAL": 16.1408,
      "ANRIND": "N",
      "BNRIND": "",
      "ABLFL": "",
      "AENTMTFL": "Y",
      "LBSEQ": 281.0,
      "LBNRIND": "NORMAL",
      "LBSTRESN": 19.8592
    },
    {
      "STUDYID": "CDISCPILOT01",
      "SUBJID": "1015",
      "USUBJID": "01-701-1015",
      "TRTP": "Placebo",
      "TRTPN": 5.397605346934028e-79,
      "TRTA": "Placebo",
      "TRTAN": 5.397605346934028e-79,
      "TRTSDT": 19725.0,
      "TRTEDT": 19906.0,
      "AGE": 63.0,
      "AGEGR1": "<65",
      "AGEGR1N": 1.0,
      "RACE": "WHITE",
      "RACEN": 1.0,
      "SEX": "F",
      "COMP24FL": "Y",
      "DSRAEFL": "",
      "SAFFL": "Y",
      "AVISIT": "Week 24",
      "AVISITN": 24.0,
      "ADY": 168.0,
      "ADT": 19892.0,
      "VISIT": "WEEK 24",
      "VISITNUM": 12.0,
      "PARAM": "Leukocytes (GI/L) change from previous visit, relative to normal range",
      "PARAMCD": "_WBC",
      "PARAMN": 106.0,
      "PARCAT1": "HEM",
      "AVAL": 0.8,
      "BASE": null,
      "CHG": null,
      "A1LO": null,
      "A1HI": null,
      "R2A1LO": null,
      "R2A1HI": null,
      "BR2A1LO": null,
      "BR2A1HI": null,
      "ANL01FL": "Y",
      "ALBTRVAL": 8.819999999999997,
      "ANRIND": "N",
      "BNRIND": "",
      "ABLFL": "",
      "AENTMTFL": "Y",
      "LBSEQ": 293.0,
      "LBNRIND": "NORMAL",
      "LBSTRESN": 7.2299999999999995
    },
    {
      "STUDYID": "CDISCPILOT01",
      "SUBJID": "1015",
      "USUBJID": "01-701-1015",
      "TRTP": "Placebo",
      "TRTPN": 5.397605346934028e-79,
      "TRTA": "Placebo",
      "TRTAN": 5.397605346934028e-79,
      "TRTSDT": 19725.0,
      "TRTEDT": 19906.0,
      "AGE": 63.0,
      "AGEGR1": "<65",
      "AGEGR1N": 1.0,
      "RACE": "WHITE",
      "RACEN": 1.0,
      "SEX": "F",
      "COMP24FL": "Y",
      "DSRAEFL": "",
      "SAFFL": "Y",
      "AVISIT": "End of Treatment",
      "AVISITN": 99.0,
      "ADY": 168.0,
      "ADT": 19892.0,
      "VISIT": "WEEK 24",
      "VISITNUM": 12.0,
      "PARAM": "Leukocytes (GI/L) change from previous visit, relative to normal range",
      "PARAMCD": "_WBC",
      "PARAMN": 106.0,
      "PARCAT1": "HEM",
      "AVAL": 0.8,
      "BASE": null,
      "CHG": null,
      "A1LO": null,
      "A1HI": null,
      "R2A1LO": null,
      "R2A1HI": null,
      "BR2A1LO": null,
      "BR2A1HI": null,
      "ANL01FL": "Y",
      "ALBTRVAL": 8.819999999999997,
      "ANRIND": "N",
      "BNRIND": "",
      "ABLFL": "",
      "AENTMTFL": "Y",
      "LBSEQ": 293.0,
      "LBNRIND": "NORMAL",
      "LBSTRESN": 7.2299999999999995
    },
    {
      "STUDYID": "CDISCPILOT01",
      "SUBJID": "1015",
      "USUBJID": "01-701-1015",
      "TRTP": "Placebo",
      "TRTPN": 5.397605346934028e-79,
      "TRTA": "Placebo",
      "TRTAN": 5.397605346934028e-79,
      "TRTSDT": 19725.0,
      "TRTEDT": 19906.0,
      "AGE": 63.0,
      "AGEGR1": "<65",
      "AGEGR1N": 1.0,
      "RACE": "WHITE",
      "RACEN": 1.0,
      "SEX": "F",
      "COMP24FL": "Y",
      "DSRAEFL": "",
      "SAFFL": "Y",
      "AVISIT": "Week 24",
      "AVISITN": 24.0,
      "ADY": 168.0,
      "ADT": 19892.0,
      "VISIT": "WEEK 24",
      "VISITNUM": 12.0,
      "PARAM": "Lymphocytes (GI/L) change from previous visit, relative to normal range",
      "PARAMCD": "_LYM",
      "PARAMN": 107.0,
      "PARCAT1": "HEM",
      "AVAL": 0.7,
      "BASE": null,
      "CHG": null,
      "A1LO": null,
      "A1HI": null,
      "R2A1LO": null,
      "R2A1HI": null,
      "BR2A1LO": null,
      "BR2A1HI": null,
      "ANL01FL": "Y",
      "ALBTRVAL": 2.15,
      "ANRIND": "N",
      "BNRIND": "",
      "ABLFL": "",
      "AENTMTFL": "Y",
      "LBSEQ": 279.0,
      "LBNRIND": "NORMAL",
      "LBSTRESN": 2.55
    },
    {
      "STUDYID": "CDISCPILOT01",
      "SUBJID": "1015",
      "USUBJID": "01-701-1015",
      "TRTP": "Placebo",
      "TRTPN": 5.397605346934028e-79,
      "TRTA": "Placebo",
      "TRTAN": 5.397605346934028e-79,
      "TRTSDT": 19725.0,
      "TRTEDT": 19906.0,
      "AGE": 63.0,
      "AGEGR1": "<65",
      "AGEGR1N": 1.0,
      "RACE": "WHITE",
      "RACEN": 1.0,
      "SEX": "F",
      "COMP24FL": "Y",
      "DSRAEFL": "",
      "SAFFL": "Y",
      "AVISIT": "End of Treatment",
      "AVISITN": 99.0,
      "ADY": 168.0,
      "ADT": 19892.0,
      "VISIT": "WEEK 24",
      "VISITNUM": 12.0,
      "PARAM": "Lymphocytes (GI/L) change from previous visit, relative to normal range",
      "PARAMCD": "_LYM",
      "PARAMN": 107.0,
      "PARCAT1": "HEM",
      "AVAL": 0.7,
      "BASE": null,
      "CHG": null,
      "A1LO": null,
      "A1HI": null,
      "R2A1LO": null,
      "R2A1HI": null,
      "BR2A1LO": null,
      "BR2A1HI": null,
      "ANL01FL": "Y",
      "ALBTRVAL": 2.15,
      "ANRIND": "N",
      "BNRIND": "",
      "ABLFL": "",
      "AENTMTFL": "Y",
      "LBSEQ": 279.0,
      "LBNRIND": "NORMAL",
      "LBSTRESN": 2.55
    },
    {
      "STUDYID": "CDISCPILOT01",
      "SUBJID": "1015",
      "USUBJID": "01-701-1015",
      "TRTP": "Placebo",
      "TRTPN": 5.397605346934028e-79,
      "TRTA": "Placebo",
      "TRTAN": 5.397605346934028e-79,
      "TRTSDT": 19725.0,
      "TRTEDT": 19906.0,
      "AGE": 63.0,
      "AGEGR1": "<65",
      "AGEGR1N": 1.0,
      "RACE": "WHITE",
      "RACEN": 1.0,
      "SEX": "F",
      "COMP24FL": "Y",
      "DSRAEFL": "",
      "SAFFL": "Y",
      "AVISIT": "Week 24",
      "AVISITN": 24.0,
      "ADY": 168.0,
      "ADT": 19892.0,
      "VISIT": "WEEK 24",
      "VISITNUM": 12.0,
      "PARAM": "Monocytes (GI/L) change from previous visit, relative to normal range",
      "PARAMCD": "_MONO",
      "PARAMN": 108.0,
      "PARCAT1": "HEM",
      "AVAL": 0.1,
      "BASE": null,
      "CHG": null,
      "A1LO": null,
      "A1HI": null,
      "R2A1LO": null,
      "R2A1HI": null,
      "BR2A1LO": null,
      "BR2A1HI": null,
      "ANL01FL": "",
      "ALBTRVAL": 1.0699999999999998,
      "ANRIND": "N",
      "BNRIND": "",
      "ABLFL": "",
      "AENTMTFL": "Y",
      "LBSEQ": 283.0,
      "LBNRIND": "NORMAL",
      "LBSTRESN": 0.31
    },
    {
      "STUDYID": "CDISCPILOT01",
      "SUBJID": "1015",
      "USUBJID": "01-701-1015",
      "TRTP": "Placebo",
      "TRTPN": 5.397605346934028e-79,
      "TRTA": "Placebo",
      "TRTAN": 5.397605346934028e-79,
      "TRTSDT": 19725.0,
      "TRTEDT": 19906.0,
      "AGE": 63.0,
      "AGEGR1": "<65",
      "AGEGR1N": 1.0,
      "RACE": "WHITE",
      "RACEN": 1.0,
      "SEX": "F",
      "COMP24FL": "Y",
      "DSRAEFL": "",
      "SAFFL": "Y",
      "AVISIT": "End of Treatment",
      "AVISITN": 99.0,
      "ADY": 168.0,
      "ADT": 19892.0,
      "VISIT": "WEEK 24",
      "VISITNUM": 12.0,
      "PARAM": "Monocytes (GI/L) change from previous visit, relative to normal range",
      "PARAMCD": "_MONO",
      "PARAMN": 108.0,
      "PARCAT1": "HEM",
      "AVAL": 0.1,
      "BASE": null,
      "CHG": null,
      "A1LO": null,
      "A1HI": null,
      "R2A1LO": null,
      "R2A1HI": null,
      "BR2A1LO": null,
      "BR2A1HI": null,
      "ANL01FL": "",
      "ALBTRVAL": 1.0699999999999998,
      "ANRIND": "N",
      "BNRIND": "",
      "ABLFL": "",
      "AENTMTFL": "Y",
      "LBSEQ": 283.0,
      "LBNRIND": "NORMAL",
      "LBSTRESN": 0.31
    },
    {
      "STUDYID": "CDISCPILOT01",
      "SUBJID": "1015",
      "USUBJID": "01-701-1015",
      "TRTP": "Placebo",
      "TRTPN": 5.397605346934028e-79,
      "TRTA": "Placebo",
      "TRTAN": 5.397605346934028e-79,
      "TRTSDT": 19725.0,
      "TRTEDT": 19906.0,
      "AGE": 63.0,
      "AGEGR1": "<65",
      "AGEGR1N": 1.0,
      "RACE": "WHITE",
      "RACEN": 1.0,
      "SEX": "F",
      "COMP24FL": "Y",
      "DSRAEFL": "",
      "SAFFL": "Y",
      "AVISIT": "Week 24",
      "AVISITN": 24.0,
      "ADY": 168.0,
      "ADT": 19892.0,
      "VISIT": "WEEK 24",
      "VISITNUM": 12.0,
      "PARAM": "Eosinophils (GI/L) change from previous visit, relative to normal range",
      "PARAMCD": "_EOS",
      "PARAMN": 109.0,
      "PARCAT1": "HEM",
      "AVAL": 0.1,
      "BASE": null,
      "CHG": null,
      "A1LO": null,
      "A1HI": null,
      "R2A1LO": null,
      "R2A1HI": null,
      "BR2A1LO": null,
      "BR2A1HI": null,
      "ANL01FL": "",
      "ALBTRVAL": 0.765,
      "ANRIND": "N",
      "BNRIND": "",
      "ABLFL": "",
      "AENTMTFL": "Y",
      "LBSEQ": 272.0,
      "LBNRIND": "NORMAL",
      "LBSTRESN": 0.09
    },
    {
      "STUDYID": "CDISCPILOT01",
      "SUBJID": "1015",
      "USUBJID": "01-701-1015",
      "TRTP": "Placebo",
      "TRTPN": 5.397605346934028e-79,
      "TRTA": "Placebo",
      "TRTAN": 5.397605346934028e-79,
      "TRTSDT": 19725.0,
      "TRTEDT": 19906.0,
      "AGE": 63.0,
      "AGEGR1": "<65",
      "AGEGR1N": 1.0,
      "RACE": "WHITE",
      "RACEN": 1.0,
      "SEX": "F",
      "COMP24FL": "Y",
      "DSRAEFL": "",
      "SAFFL": "Y",
      "AVISIT": "End of Treatment",
      "AVISITN": 99.0,
      "ADY": 168.0,
      "ADT": 19892.0,
      "VISIT": "WEEK 24",
      "VISITNUM": 12.0,
      "PARAM": "Eosinophils (GI/L) change from previous visit, relative to normal range",
      "PARAMCD": "_EOS",
      "PARAMN": 109.0,
      "PARCAT1": "HEM",
      "AVAL": 0.1,
      "BASE": null,
      "CHG": null,
      "A1LO": null,
      "A1HI": null,
      "R2A1LO": null,
      "R2A1HI": null,
      "BR2A1LO": null,
      "BR2A1HI": null,
      "ANL01FL": "",
      "ALBTRVAL": 0.765,
      "ANRIND": "N",
      "BNRIND": "",
      "ABLFL": "",
      "AENTMTFL": "Y",
      "LBSEQ": 272.0,
      "LBNRIND": "NORMAL",
      "LBSTRESN": 0.09
    },
    {
      "STUDYID": "CDISCPILOT01",
      "SUBJID": "1015",
      "USUBJID": "01-701-1015",
      "TRTP": "Placebo",
      "TRTPN": 5.397605346934028e-79,
      "TRTA": "Placebo",
      "TRTAN": 5.397605346934028e-79,
      "TRTSDT": 19725.0,
      "TRTEDT": 19906.0,
      "AGE": 63.0,
      "AGEGR1": "<65",
      "AGEGR1N": 1.0,
      "RACE": "WHITE",
      "RACEN": 1.0,
      "SEX": "F",
      "COMP24FL": "Y",
      "DSRAEFL": "",
      "SAFFL": "Y",
      "AVISIT": "Week 24",
      "AVISITN": 24.0,
      "ADY": 168.0,
      "ADT": 19892.0,
      "VISIT": "WEEK 24",
      "VISITNUM": 12.0,
      "PARAM": "Basophils (GI/L) change from previous visit, relative to normal range",
      "PARAMCD": "_BASO",
      "PARAMN": 110.0,
      "PARCAT1": "HEM",
      "AVAL": 0.1,
      "BASE": null,
      "CHG": null,
      "A1LO": null,
      "A1HI": null,
      "R2A1LO": null,
      "R2A1HI": null,
      "BR2A1LO": null,
      "BR2A1HI": null,
      "ANL01FL": "",
      "ALBTRVAL": 0.26,
      "ANRIND": "N",
      "BNRIND": "",
      "ABLFL": "",
      "AENTMTFL": "Y",
      "LBSEQ": 263.0,
      "LBNRIND": "NORMAL",
      "LBSTRESN": 0.039999999999999994
    },
    {
      "STUDYID": "CDISCPILOT01",
      "SUBJID": "1015",
      "USUBJID": "01-701-1015",
      "TRTP": "Placebo",
      "TRTPN": 5.397605346934028e-79,
      "TRTA": "Placebo",
      "TRTAN": 5.397605346934028e-79,
      "TRTSDT": 19725.0,
      "TRTEDT": 19906.0,
      "AGE": 63.0,
      "AGEGR1": "<65",
      "AGEGR1N": 1.0,
      "RACE": "WHITE",
      "RACEN": 1.0,
      "SEX": "F",
      "COMP24FL": "Y",
      "DSRAEFL": "",
      "SAFFL": "Y",
      "AVISIT": "End of Treatment",
      "AVISITN": 99.0,
      "ADY": 168.0,
      "ADT": 19892.0,
      "VISIT": "WEEK 24",
      "VISITNUM": 12.0,
      "PARAM": "Basophils (GI/L) change from previous visit, relative to normal range",
      "PARAMCD": "_BASO",
      "PARAMN": 110.0,
      "PARCAT1": "HEM",
      "AVAL": 0.1,
      "BASE": null,
      "CHG": null,
      "A1LO": null,
      "A1HI": null,
      "R2A1LO": null,
      "R2A1HI": null,
      "BR2A1LO": null,
      "BR2A1HI": null,
      "ANL01FL": "",
      "ALBTRVAL": 0.26,
      "ANRIND": "N",
      "BNRIND": "",
      "ABLFL": "",
      "AENTMTFL": "Y",
      "LBSEQ": 263.0,
      "LBNRIND": "NORMAL",
      "LBSTRESN": 0.039999999999999994
    },
    {
      "STUDYID": "CDISCPILOT01",
      "SUBJID": "1015",
      "USUBJID": "01-701-1015",
      "TRTP": "Placebo",
      "TRTPN": 5.397605346934028e-79,
      "TRTA": "Placebo",
      "TRTAN": 5.397605346934028e-79,
      "TRTSDT": 19725.0,
      "TRTEDT": 19906.0,
      "AGE": 63.0,
      "AGEGR1": "<65",
      "AGEGR1N": 1.0,
      "RACE": "WHITE",
      "RACEN": 1.0,
      "SEX": "F",
      "COMP24FL": "Y",
      "DSRAEFL": "",
      "SAFFL": "Y",
      "AVISIT": "Week 24",
      "AVISITN": 24.0,
      "ADY": 168.0,
      "ADT": 19892.0,
      "VISIT": "WEEK 24",
      "VISITNUM": 12.0,
      "PARAM": "Platelet (GI/L) change from previous visit, relative to normal range",
      "PARAMCD": "_PLAT",
      "PARAMN": 111.0,
      "PARCAT1": "HEM",
      "AVAL": 0.2,
      "BASE": null,
      "CHG": null,
      "A1LO": null,
      "A1HI": null,
      "R2A1LO": null,
      "R2A1HI": null,
      "BR2A1LO": null,
      "BR2A1HI": null,
      "ANL01FL": "",
      "ALBTRVAL": 332.0,
      "ANRIND": "N",
      "BNRIND": "",
      "ABLFL": "",
      "AENTMTFL": "Y",
      "LBSEQ": 287.0,
      "LBNRIND": "NORMAL",
      "LBSTRESN": 259.0
    },
    {
      "STUDYID": "CDISCPILOT01",
      "SUBJID": "1015",
      "USUBJID": "01-701-1015",
      "TRTP": "Placebo",
      "TRTPN": 5.397605346934028e-79,
      "TRTA": "Placebo",
      "TRTAN": 5.397605346934028e-79,
      "TRTSDT": 19725.0,
      "TRTEDT": 19906.0,
      "AGE": 63.0,
      "AGEGR1": "<65",
      "AGEGR1N": 1.0,
      "RACE": "WHITE",
      "RACEN": 1.0,
      "SEX": "F",
      "COMP24FL": "Y",
      "DSRAEFL": "",
      "SAFFL": "Y",
      "AVISIT": "End of Treatment",
      "AVISITN": 99.0,
      "ADY": 168.0,
      "ADT": 19892.0,
      "VISIT": "WEEK 24",
      "VISITNUM": 12.0,
      "PARAM": "Platelet (GI/L) change from previous visit, relative to normal range",
      "PARAMCD": "_PLAT",
      "PARAMN": 111.0,
      "PARCAT1": "HEM",
      "AVAL": 0.2,
      "BASE": null,
      "CHG": null,
      "A1LO": null,
      "A1HI": null,
      "R2A1LO": null,
      "R2A1HI": null,
      "BR2A1LO": null,
      "BR2A1HI": null,
      "ANL01FL": "",
      "ALBTRVAL": 332.0,
      "ANRIND": "N",
      "BNRIND": "",
      "ABLFL": "",
      "AENTMTFL": "Y",
      "LBSEQ": 287.0,
      "LBNRIND": "NORMAL",
      "LBSTRESN": 259.0
    },
    {
      "STUDYID": "CDISCPILOT01",
      "SUBJID": "1015",
      "USUBJID": "01-701-1015",
      "TRTP": "Placebo",
      "TRTPN": 5.397605346934028e-79,
      "TRTA": "Placebo",
      "TRTAN": 5.397605346934028e-79,
      "TRTSDT": 19725.0,
      "TRTEDT": 19906.0,
      "AGE": 63.0,
      "AGEGR1": "<65",
      "AGEGR1N": 1.0,
      "RACE": "WHITE",
      "RACEN": 1.0,
      "SEX": "F",
      "COMP24FL": "Y",
      "DSRAEFL": "",
      "SAFFL": "Y",
      "AVISIT": "Week 24",
      "AVISITN": 24.0,
      "ADY": 168.0,
      "ADT": 19892.0,
      "VISIT": "WEEK 24",
      "VISITNUM": 12.0,
      "PARAM": "Erythrocytes (TI/L) change from previous visit, relative to normal range",
      "PARAMCD": "_RBC",
      "PARAMN": 112.0,
      "PARCAT1": "HEM",
      "AVAL": 0.5,
      "BASE": null,
      "CHG": null,
      "A1LO": null,
      "A1HI": null,
      "R2A1LO": null,
      "R2A1HI": null,
      "BR2A1LO": null,
      "BR2A1HI": null,
      "ANL01FL": "Y",
      "ALBTRVAL": 3.3499999999999996,
      "ANRIND": "N",
      "BNRIND": "",
      "ABLFL": "",
      "AENTMTFL": "Y",
      "LBSEQ": 289.0,
      "LBNRIND": "NORMAL",
      "LBSTRESN": 5.3
    },
    {
      "STUDYID": "CDISCPILOT01",
      "SUBJID": "1015",
      "USUBJID": "01-701-1015",
      "TRTP": "Placebo",
      "TRTPN": 5.397605346934028e-79,
      "TRTA": "Placebo",
      "TRTAN": 5.397605346934028e-79,
      "TRTSDT": 19725.0,
      "TRTEDT": 19906.0,
      "AGE": 63.0,
      "AGEGR1": "<65",
      "AGEGR1N": 1.0,
      "RACE": "WHITE",
      "RACEN": 1.0,
      "SEX": "F",
      "COMP24FL": "Y",
      "DSRAEFL": "",
      "SAFFL": "Y",
      "AVISIT": "End of Treatment",
      "AVISITN": 99.0,
      "ADY": 168.0,
      "ADT": 19892.0,
      "VISIT": "WEEK 24",
      "VISITNUM": 12.0,
      "PARAM": "Erythrocytes (TI/L) change from previous visit, relative to normal range",
      "PARAMCD": "_RBC",
      "PARAMN": 112.0,
      "PARCAT1": "HEM",
      "AVAL": 0.5,
      "BASE": null,
      "CHG": null,
      "A1LO": null,
      "A1HI": null,
      "R2A1LO": null,
      "R2A1HI": null,
      "BR2A1LO": null,
      "BR2A1HI": null,
      "ANL01FL": "Y",
      "ALBTRVAL": 3.3499999999999996,
      "ANRIND": "N",
      "BNRIND": "",
      "ABLFL": "",
      "AENTMTFL": "Y",
      "LBSEQ": 289.0,
      "LBNRIND": "NORMAL",
      "LBSTRESN": 5.3
    },
    {
      "STUDYID": "CDISCPILOT01",
      "SUBJID": "1015",
      "USUBJID": "01-701-1015",
      "TRTP": "Placebo",
      "TRTPN": 5.397605346934028e-79,
      "TRTA": "Placebo",
      "TRTAN": 5.397605346934028e-79,
      "TRTSDT": 19725.0,
      "TRTEDT": 19906.0,
      "AGE": 63.0,
      "AGEGR1": "<65",
      "AGEGR1N": 1.0,
      "RACE": "WHITE",
      "RACEN": 1.0,
      "SEX": "F",
      "COMP24FL": "Y",
      "DSRAEFL": "",
      "SAFFL": "Y",
      "AVISIT": "Week 26",
      "AVISITN": 26.0,
      "ADY": 182.0,
      "ADT": 19906.0,
      "VISIT": "WEEK 26",
      "VISITNUM": 13.0,
      "PARAM": "Hemoglobin (mmol/L) change from previous visit, relative to normal range",
      "PARAMCD": "_HGB",
      "PARAMN": 101.0,
      "PARCAT1": "HEM",
      "AVAL": 0.1,
      "BASE": null,
      "CHG": null,
      "A1LO": null,
      "A1HI": null,
      "R2A1LO": null,
      "R2A1HI": null,
      "BR2A1LO": null,
      "BR2A1HI": null,
      "ANL01FL": "",
      "ALBTRVAL": 5.840419999999998,
      "ANRIND": "N",
      "BNRIND": "",
      "ABLFL": "",
      "AENTMTFL": "",
      "LBSEQ": 310.0,
      "LBNRIND": "NORMAL",
      "LBSTRESN": 8.87458
    },
    {
      "STUDYID": "CDISCPILOT01",
      "SUBJID": "1015",
      "USUBJID": "01-701-1015",
      "TRTP": "Placebo",
      "TRTPN": 5.397605346934028e-79,
      "TRTA": "Placebo",
      "TRTAN": 5.397605346934028e-79,
      "TRTSDT": 19725.0,
      "TRTEDT": 19906.0,
      "AGE": 63.0,
      "AGEGR1": "<65",
      "AGEGR1N": 1.0,
      "RACE": "WHITE",
      "RACEN": 1.0,
      "SEX": "F",
      "COMP24FL": "Y",
      "DSRAEFL": "",
      "SAFFL": "Y",
      "AVISIT": "Week 26",
      "AVISITN": 26.0,
      "ADY": 182.0,
      "ADT": 19906.0,
      "VISIT": "WEEK 26",
      "VISITNUM": 13.0,
      "PARAM": "Hematocrit change from previous visit, relative to normal range",
      "PARAMCD": "_HCT",
      "PARAMN": 102.0,
      "PARCAT1": "HEM",
      "AVAL": 0.1,
      "BASE": null,
      "CHG": null,
      "A1LO": null,
      "A1HI": null,
      "R2A1LO": null,
      "R2A1HI": null,
      "BR2A1LO": null,
      "BR2A1HI": null,
      "ANL01FL": "",
      "ALBTRVAL": 0.27999999999999997,
      "ANRIND": "N",
      "BNRIND": "",
      "ABLFL": "",
      "AENTMTFL": "",
      "LBSEQ": 309.0,
      "LBNRIND": "NORMAL",
      "LBSTRESN": 0.44999999999999996
    },
    {
      "STUDYID": "CDISCPILOT01",
      "SUBJID": "1015",
      "USUBJID": "01-701-1015",
      "TRTP": "Placebo",
      "TRTPN": 5.397605346934028e-79,
      "TRTA": "Placebo",
      "TRTAN": 5.397605346934028e-79,
      "TRTSDT": 19725.0,
      "TRTEDT": 19906.0,
      "AGE": 63.0,
      "AGEGR1": "<65",
      "AGEGR1N": 1.0,
      "RACE": "WHITE",
      "RACEN": 1.0,
      "SEX": "F",
      "COMP24FL": "Y",
      "DSRAEFL": "",
      "SAFFL": "Y",
      "AVISIT": "Week 26",
      "AVISITN": 26.0,
      "ADY": 182.0,
      "ADT": 19906.0,
      "VISIT": "WEEK 26",
      "VISITNUM": 13.0,
      "PARAM": "Ery. Mean Corpuscular Volume (fL) change from previous visit, relative to normal range",
      "PARAMCD": "_MCV",
      "PARAMN": 103.0,
      "PARCAT1": "HEM",
      "AVAL": 0.2,
      "BASE": null,
      "CHG": null,
      "A1LO": null,
      "A1HI": null,
      "R2A1LO": null,
      "R2A1HI": null,
      "BR2A1LO": null,
      "BR2A1HI": null,
      "ANL01FL": "",
      "ALBTRVAL": 66.0,
      "ANRIND": "N",
      "BNRIND": "",
      "ABLFL": "",
      "AENTMTFL": "",
      "LBSEQ": 315.0,
      "LBNRIND": "NORMAL",
      "LBSTRESN": 84.0
    },
    {
      "STUDYID": "CDISCPILOT01",
      "SUBJID": "1015",
      "USUBJID": "01-701-1015",
      "TRTP": "Placebo",
      "TRTPN": 5.397605346934028e-79,
      "TRTA": "Placebo",
      "TRTAN": 5.397605346934028e-79,
      "TRTSDT": 19725.0,
      "TRTEDT": 19906.0,
      "AGE": 63.0,
      "AGEGR1": "<65",
      "AGEGR1N": 1.0,
      "RACE": "WHITE",
      "RACEN": 1.0,
      "SEX": "F",
      "COMP24FL": "Y",
      "DSRAEFL": "",
      "SAFFL": "Y",
      "AVISIT": "Week 26",
      "AVISITN": 26.0,
      "ADY": 182.0,
      "ADT": 19906.0,
      "VISIT": "WEEK 26",
      "VISITNUM": 13.0,
      "PARAM": "Ery. Mean Corpuscular Hemoglobin (fmol(Fe)) change from previous visit, relative to normal range",
      "PARAMCD": "_MCH",
      "PARAMN": 104.0,
      "PARCAT1": "HEM",
      "AVAL": 5.397605346934028e-79,
      "BASE": null,
      "CHG": null,
      "A1LO": null,
      "A1HI": null,
      "R2A1LO": null,
      "R2A1HI": null,
      "BR2A1LO": null,
      "BR2A1HI": null,
      "ANL01FL": "",
      "ALBTRVAL": 1.4743800000000002,
      "ANRIND": "N",
      "BNRIND": "",
      "ABLFL": "",
      "AENTMTFL": "",
      "LBSEQ": 313.0,
      "LBNRIND": "NORMAL",
      "LBSTRESN": 1.67562
    },
    {
      "STUDYID": "CDISCPILOT01",
      "SUBJID": "1015",
      "USUBJID": "01-701-1015",
      "TRTP": "Placebo",
      "TRTPN": 5.397605346934028e-79,
      "TRTA": "Placebo",
      "TRTAN": 5.397605346934028e-79,
      "TRTSDT": 19725.0,
      "TRTEDT": 19906.0,
      "AGE": 63.0,
      "AGEGR1": "<65",
      "AGEGR1N": 1.0,
      "RACE": "WHITE",
      "RACEN": 1.0,
      "SEX": "F",
      "COMP24FL": "Y",
      "DSRAEFL": "",
      "SAFFL": "Y",
      "AVISIT": "Week 26",
      "AVISITN": 26.0,
      "ADY": 182.0,
      "ADT": 19906.0,
      "VISIT": "WEEK 26",
      "VISITNUM": 13.0,
      "PARAM": "Ery. Mean Corpuscular HGB Concentration (mmol/L) change from previous visit, relative to normal rang",
      "PARAMCD": "_MCHC",
      "PARAMN": 105.0,
      "PARCAT1": "HEM",
      "AVAL": 5.397605346934028e-79,
      "BASE": null,
      "CHG": null,
      "A1LO": null,
      "A1HI": null,
      "R2A1LO": null,
      "R2A1HI": null,
      "BR2A1LO": null,
      "BR2A1HI": null,
      "ANL01FL": "",
      "ALBTRVAL": 16.1408,
      "ANRIND": "N",
      "BNRIND": "",
      "ABLFL": "",
      "AENTMTFL": "",
      "LBSEQ": 314.0,
      "LBNRIND": "NORMAL",
      "LBSTRESN": 19.8592
    },
    {
      "STUDYID": "CDISCPILOT01",
      "SUBJID": "1015",
      "USUBJID": "01-701-1015",
      "TRTP": "Placebo",
      "TRTPN": 5.397605346934028e-79,
      "TRTA": "Placebo",
      "TRTAN": 5.397605346934028e-79,
      "TRTSDT": 19725.0,
      "TRTEDT": 19906.0,
      "AGE": 63.0,
      "AGEGR1": "<65",
      "AGEGR1N": 1.0,
      "RACE": "WHITE",
      "RACEN": 1.0,
      "SEX": "F",
      "COMP24FL": "Y",
      "DSRAEFL": "",
      "SAFFL": "Y",
      "AVISIT": "Week 26",
      "AVISITN": 26.0,
      "ADY": 182.0,
      "ADT": 19906.0,
      "VISIT": "WEEK 26",
      "VISITNUM": 13.0,
      "PARAM": "Leukocytes (GI/L) change from previous visit, relative to normal range",
      "PARAMCD": "_WBC",
      "PARAMN": 106.0,
      "PARCAT1": "HEM",
      "AVAL": -0.5,
      "BASE": null,
      "CHG": null,
      "A1LO": null,
      "A1HI": null,
      "R2A1LO": null,
      "R2A1HI": null,
      "BR2A1LO": null,
      "BR2A1HI": null,
      "ANL01FL": "",
      "ALBTRVAL": 10.619999999999997,
      "ANRIND": "N",
      "BNRIND": "",
      "ABLFL": "",
      "AENTMTFL": "",
      "LBSEQ": 323.0,
      "LBNRIND": "NORMAL",
      "LBSTRESN": 5.43
    },
    {
      "STUDYID": "CDISCPILOT01",
      "SUBJID": "1015",
      "USUBJID": "01-701-1015",
      "TRTP": "Placebo",
      "TRTPN": 5.397605346934028e-79,
      "TRTA": "Placebo",
      "TRTAN": 5.397605346934028e-79,
      "TRTSDT": 19725.0,
      "TRTEDT": 19906.0,
      "AGE": 63.0,
      "AGEGR1": "<65",
      "AGEGR1N": 1.0,
      "RACE": "WHITE",
      "RACEN": 1.0,
      "SEX": "F",
      "COMP24FL": "Y",
      "DSRAEFL": "",
      "SAFFL": "Y",
      "AVISIT": "Week 26",
      "AVISITN": 26.0,
      "ADY": 182.0,
      "ADT": 19906.0,
      "VISIT": "WEEK 26",
      "VISITNUM": 13.0,
      "PARAM": "Lymphocytes (GI/L) change from previous visit, relative to normal range",
      "PARAMCD": "_LYM",
      "PARAMN": 107.0,
      "PARCAT1": "HEM",
      "AVAL": -0.5,
      "BASE": null,
      "CHG": null,
      "A1LO": null,
      "A1HI": null,
      "R2A1LO": null,
      "R2A1HI": null,
      "BR2A1LO": null,
      "BR2A1HI": null,
      "ANL01FL": "",
      "ALBTRVAL": 2.47,
      "ANRIND": "N",
      "BNRIND": "",
      "ABLFL": "",
      "AENTMTFL": "",
      "LBSEQ": 312.0,
      "LBNRIND": "NORMAL",
      "LBSTRESN": 2.03
    },
    {
      "STUDYID": "CDISCPILOT01",
      "SUBJID": "1015",
      "USUBJID": "01-701-1015",
      "TRTP": "Placebo",
      "TRTPN": 5.397605346934028e-79,
      "TRTA": "Placebo",
      "TRTAN": 5.397605346934028e-79,
      "TRTSDT": 19725.0,
      "TRTEDT": 19906.0,
      "AGE": 63.0,
      "AGEGR1": "<65",
      "AGEGR1N": 1.0,
      "RACE": "WHITE",
      "RACEN": 1.0,
      "SEX": "F",
      "COMP24FL": "Y",
      "DSRAEFL": "",
      "SAFFL": "Y",
      "AVISIT": "Week 26",
      "AVISITN": 26.0,
      "ADY": 182.0,
      "ADT": 19906.0,
      "VISIT": "WEEK 26",
      "VISITNUM": 13.0,
      "PARAM": "Monocytes (GI/L) change from previous visit, relative to normal range",
      "PARAMCD": "_MONO",
      "PARAMN": 108.0,
      "PARCAT1": "HEM",
      "AVAL": 5.397605346934028e-79,
      "BASE": null,
      "CHG": null,
      "A1LO": null,
      "A1HI": null,
      "R2A1LO": null,
      "R2A1HI": null,
      "BR2A1LO": null,
      "BR2A1HI": null,
      "ANL01FL": "",
      "ALBTRVAL": 1.0699999999999998,
      "ANRIND": "N",
      "BNRIND": "",
      "ABLFL": "",
      "AENTMTFL": "",
      "LBSEQ": 316.0,
      "LBNRIND": "NORMAL",
      "LBSTRESN": 0.31
    },
    {
      "STUDYID": "CDISCPILOT01",
      "SUBJID": "1015",
      "USUBJID": "01-701-1015",
      "TRTP": "Placebo",
      "TRTPN": 5.397605346934028e-79,
      "TRTA": "Placebo",
      "TRTAN": 5.397605346934028e-79,
      "TRTSDT": 19725.0,
      "TRTEDT": 19906.0,
      "AGE": 63.0,
      "AGEGR1": "<65",
      "AGEGR1N": 1.0,
      "RACE": "WHITE",
      "RACEN": 1.0,
      "SEX": "F",
      "COMP24FL": "Y",
      "DSRAEFL": "",
      "SAFFL": "Y",
      "AVISIT": "Week 26",
      "AVISITN": 26.0,
      "ADY": 182.0,
      "ADT": 19906.0,
      "VISIT": "WEEK 26",
      "VISITNUM": 13.0,
      "PARAM": "Eosinophils (GI/L) change from previous visit, relative to normal range",
      "PARAMCD": "_EOS",
      "PARAMN": 109.0,
      "PARCAT1": "HEM",
      "AVAL": -0.1,
      "BASE": null,
      "CHG": null,
      "A1LO": null,
      "A1HI": null,
      "R2A1LO": null,
      "R2A1HI": null,
      "BR2A1LO": null,
      "BR2A1HI": null,
      "ANL01FL": "",
      "ALBTRVAL": 0.7849999999999999,
      "ANRIND": "N",
      "BNRIND": "",
      "ABLFL": "",
      "AENTMTFL": "",
      "LBSEQ": 306.0,
      "LBNRIND": "NORMAL",
      "LBSTRESN": 0.07
    },
    {
      "STUDYID": "CDISCPILOT01",
      "SUBJID": "1015",
      "USUBJID": "01-701-1015",
      "TRTP": "Placebo",
      "TRTPN": 5.397605346934028e-79,
      "TRTA": "Placebo",
      "TRTAN": 5.397605346934028e-79,
      "TRTSDT": 19725.0,
      "TRTEDT": 19906.0,
      "AGE": 63.0,
      "AGEGR1": "<65",
      "AGEGR1N": 1.0,
      "RACE": "WHITE",
      "RACEN": 1.0,
      "SEX": "F",
      "COMP24FL": "Y",
      "DSRAEFL": "",
      "SAFFL": "Y",
      "AVISIT": "Week 26",
      "AVISITN": 26.0,
      "ADY": 182.0,
      "ADT": 19906.0,
      "VISIT": "WEEK 26",
      "VISITNUM": 13.0,
      "PARAM": "Basophils (GI/L) change from previous visit, relative to normal range",
      "PARAMCD": "_BASO",
      "PARAMN": 110.0,
      "PARCAT1": "HEM",
      "AVAL": -0.1,
      "BASE": null,
      "CHG": null,
      "A1LO": null,
      "A1HI": null,
      "R2A1LO": null,
      "R2A1HI": null,
      "BR2A1LO": null,
      "BR2A1HI": null,
      "ANL01FL": "",
      "ALBTRVAL": 0.27,
      "ANRIND": "N",
      "BNRIND": "",
      "ABLFL": "",
      "AENTMTFL": "",
      "LBSEQ": 298.0,
      "LBNRIND": "NORMAL",
      "LBSTRESN": 0.03
    },
    {
      "STUDYID": "CDISCPILOT01",
      "SUBJID": "1015",
      "USUBJID": "01-701-1015",
      "TRTP": "Placebo",
      "TRTPN": 5.397605346934028e-79,
      "TRTA": "Placebo",
      "TRTAN": 5.397605346934028e-79,
      "TRTSDT": 19725.0,
      "TRTEDT": 19906.0,
      "AGE": 63.0,
      "AGEGR1": "<65",
      "AGEGR1N": 1.0,
      "RACE": "WHITE",
      "RACEN": 1.0,
      "SEX": "F",
      "COMP24FL": "Y",
      "DSRAEFL": "",
      "SAFFL": "Y",
      "AVISIT": "Week 26",
      "AVISITN": 26.0,
      "ADY": 182.0,
      "ADT": 19906.0,
      "VISIT": "WEEK 26",
      "VISITNUM": 13.0,
      "PARAM": "Platelet (GI/L) change from previous visit, relative to normal range",
      "PARAMCD": "_PLAT",
      "PARAMN": 111.0,
      "PARCAT1": "HEM",
      "AVAL": 0.3,
      "BASE": null,
      "CHG": null,
      "A1LO": null,
      "A1HI": null,
      "R2A1LO": null,
      "R2A1HI": null,
      "BR2A1LO": null,
      "BR2A1HI": null,
      "ANL01FL": "",
      "ALBTRVAL": 291.0,
      "ANRIND": "N",
      "BNRIND": "",
      "ABLFL": "",
      "AENTMTFL": "",
      "LBSEQ": 319.0,
      "LBNRIND": "NORMAL",
      "LBSTRESN": 300.0
    },
    {
      "STUDYID": "CDISCPILOT01",
      "SUBJID": "1015",
      "USUBJID": "01-701-1015",
      "TRTP": "Placebo",
      "TRTPN": 5.397605346934028e-79,
      "TRTA": "Placebo",
      "TRTAN": 5.397605346934028e-79,
      "TRTSDT": 19725.0,
      "TRTEDT": 19906.0,
      "AGE": 63.0,
      "AGEGR1": "<65",
      "AGEGR1N": 1.0,
      "RACE": "WHITE",
      "RACEN": 1.0,
      "SEX": "F",
      "COMP24FL": "Y",
      "DSRAEFL": "",
      "SAFFL": "Y",
      "AVISIT": "Week 26",
      "AVISITN": 26.0,
      "ADY": 182.0,
      "ADT": 19906.0,
      "VISIT": "WEEK 26",
      "VISITNUM": 13.0,
      "PARAM": "Erythrocytes (TI/L) change from previous visit, relative to normal range",
      "PARAMCD": "_RBC",
      "PARAMN": 112.0,
      "PARCAT1": "HEM",
      "AVAL": 0.1,
      "BASE": null,
      "CHG": null,
      "A1LO": null,
      "A1HI": null,
      "R2A1LO": null,
      "R2A1HI": null,
      "BR2A1LO": null,
      "BR2A1HI": null,
      "ANL01FL": "",
      "ALBTRVAL": 3.4499999999999993,
      "ANRIND": "N",
      "BNRIND": "",
      "ABLFL": "",
      "AENTMTFL": "",
      "LBSEQ": 321.0,
      "LBNRIND": "NORMAL",
      "LBSTRESN": 5.3999999999999995
    },
    {
      "STUDYID": "CDISCPILOT01",
      "SUBJID": "1023",
      "USUBJID": "01-701-1023",
      "TRTP": "Placebo",
      "TRTPN": 5.397605346934028e-79,
      "TRTA": "Placebo",
      "TRTAN": 5.397605346934028e-79,
      "TRTSDT": 19210.0,
      "TRTEDT": 19237.0,
      "AGE": 64.0,
      "AGEGR1": "<65",
      "AGEGR1N": 1.0,
      "RACE": "WHITE",
      "RACEN": 1.0,
      "SEX": "M",
      "COMP24FL": "N",
      "DSRAEFL": "Y",
      "SAFFL": "Y",
      "AVISIT": "Baseline",
      "AVISITN": 5.397605346934028e-79,
      "ADY": -14.0,
      "ADT": 19196.0,
      "VISIT": "SCREENING 1",
      "VISITNUM": 1.0,
      "PARAM": "Hemoglobin (mmol/L) change from previous visit, relative to normal range",
      "PARAMCD": "_HGB",
      "PARAMN": 101.0,
      "PARCAT1": "HEM",
      "AVAL": NaN,
      "BASE": null,
      "CHG": null,
      "A1LO": null,
      "A1HI": null,
      "R2A1LO": null,
      "R2A1HI": null,
      "BR2A1LO": null,
      "BR2A1HI": null,
      "ANL01FL": "",
      "ALBTRVAL": 6.1737199999999985,
      "ANRIND": "",
      "BNRIND": "",
      "ABLFL": "",
      "AENTMTFL": "",
      "LBSEQ": 18.0,
      "LBNRIND": "NORMAL",
      "LBSTRESN": 10.053719999999998
    },
    {
      "STUDYID": "CDISCPILOT01",
      "SUBJID": "1023",
      "USUBJID": "01-701-1023",
      "TRTP": "Placebo",
      "TRTPN": 5.397605346934028e-79,
      "TRTA": "Placebo",
      "TRTAN": 5.397605346934028e-79,
      "TRTSDT": 19210.0,
      "TRTEDT": 19237.0,
      "AGE": 64.0,
      "AGEGR1": "<65",
      "AGEGR1N": 1.0,
      "RACE": "WHITE",
      "RACEN": 1.0,
      "SEX": "M",
      "COMP24FL": "N",
      "DSRAEFL": "Y",
      "SAFFL": "Y",
      "AVISIT": "Baseline",
      "AVISITN": 5.397605346934028e-79,
      "ADY": -14.0,
      "ADT": 19196.0,
      "VISIT": "SCREENING 1",
      "VISITNUM": 1.0,
      "PARAM": "Hematocrit change from previous visit, relative to normal range",
      "PARAMCD": "_HCT",
      "PARAMN": 102.0,
      "PARCAT1": "HEM",
      "AVAL": NaN,
      "BASE": null,
      "CHG": null,
      "A1LO": null,
      "A1HI": null,
      "R2A1LO": null,
      "R2A1HI": null,
      "BR2A1LO": null,
      "BR2A1HI": null,
      "ANL01FL": "",
      "ALBTRVAL": 0.305,
      "ANRIND": "",
      "BNRIND": "",
      "ABLFL": "",
      "AENTMTFL": "",
      "LBSEQ": 17.0,
      "LBNRIND": "NORMAL",
      "LBSTRESN": 0.49
    },
    {
      "STUDYID": "CDISCPILOT01",
      "SUBJID": "1023",
      "USUBJID": "01-701-1023",
      "TRTP": "Placebo",
      "TRTPN": 5.397605346934028e-79,
      "TRTA": "Placebo",
      "TRTAN": 5.397605346934028e-79,
      "TRTSDT": 19210.0,
      "TRTEDT": 19237.0,
      "AGE": 64.0,
      "AGEGR1": "<65",
      "AGEGR1N": 1.0,
      "RACE": "WHITE",
      "RACEN": 1.0,
      "SEX": "M",
      "COMP24FL": "N",
      "DSRAEFL": "Y",
      "SAFFL": "Y",
      "AVISIT": "Baseline",
      "AVISITN": 5.397605346934028e-79,
      "ADY": -14.0,
      "ADT": 19196.0,
      "VISIT": "SCREENING 1",
      "VISITNUM": 1.0,
      "PARAM": "Ery. Mean Corpuscular Volume (fL) change from previous visit, relative to normal range",
      "PARAMCD": "_MCV",
      "PARAMN": 103.0,
      "PARCAT1": "HEM",
      "AVAL": NaN,
      "BASE": null,
      "CHG": null,
      "A1LO": null,
      "A1HI": null,
      "R2A1LO": null,
      "R2A1HI": null,
      "BR2A1LO": null,
      "BR2A1HI": null,
      "ANL01FL": "",
      "ALBTRVAL": 58.0,
      "ANRIND": "",
      "BNRIND": "",
      "ABLFL": "",
      "AENTMTFL": "",
      "LBSEQ": 24.0,
      "LBNRIND": "NORMAL",
      "LBSTRESN": 92.0
    },
    {
      "STUDYID": "CDISCPILOT01",
      "SUBJID": "1023",
      "USUBJID": "01-701-1023",
      "TRTP": "Placebo",
      "TRTPN": 5.397605346934028e-79,
      "TRTA": "Placebo",
      "TRTAN": 5.397605346934028e-79,
      "TRTSDT": 19210.0,
      "TRTEDT": 19237.0,
      "AGE": 64.0,
      "AGEGR1": "<65",
      "AGEGR1N": 1.0,
      "RACE": "WHITE",
      "RACEN": 1.0,
      "SEX": "M",
      "COMP24FL": "N",
      "DSRAEFL": "Y",
      "SAFFL": "Y",
      "AVISIT": "Baseline",
      "AVISITN": 5.397605346934028e-79,
      "ADY": -14.0,
      "ADT": 19196.0,
      "VISIT": "SCREENING 1",
      "VISITNUM": 1.0,
      "PARAM": "Ery. Mean Corpuscular Hemoglobin (fmol(Fe)) change from previous visit, relative to normal range",
      "PARAMCD": "_MCH",
      "PARAMN": 104.0,
      "PARCAT1": "HEM",
      "AVAL": NaN,
      "BASE": null,
      "CHG": null,
      "A1LO": null,
      "A1HI": null,
      "R2A1LO": null,
      "R2A1HI": null,
      "BR2A1LO": null,
      "BR2A1HI": null,
      "ANL01FL": "",
      "ALBTRVAL": 1.2882000000000005,
      "ANRIND": "",
      "BNRIND": "",
      "ABLFL": "",
      "AENTMTFL": "",
      "LBSEQ": 22.0,
      "LBNRIND": "NORMAL",
      "LBSTRESN": 1.8618
    },
    {
      "STUDYID": "CDISCPILOT01",
      "SUBJID": "1023",
      "USUBJID": "01-701-1023",
      "TRTP": "Placebo",
      "TRTPN": 5.397605346934028e-79,
      "TRTA": "Placebo",
      "TRTAN": 5.397605346934028e-79,
      "TRTSDT": 19210.0,
      "TRTEDT": 19237.0,
      "AGE": 64.0,
      "AGEGR1": "<65",
      "AGEGR1N": 1.0,
      "RACE": "WHITE",
      "RACEN": 1.0,
      "SEX": "M",
      "COMP24FL": "N",
      "DSRAEFL": "Y",
      "SAFFL": "Y",
      "AVISIT": "Baseline",
      "AVISITN": 5.397605346934028e-79,
      "ADY": -14.0,
      "ADT": 19196.0,
      "VISIT": "SCREENING 1",
      "VISITNUM": 1.0,
      "PARAM": "Ery. Mean Corpuscular HGB Concentration (mmol/L) change from previous visit, relative to normal rang",
      "PARAMCD": "_MCHC",
      "PARAMN": 105.0,
      "PARCAT1": "HEM",
      "AVAL": NaN,
      "BASE": null,
      "CHG": null,
      "A1LO": null,
      "A1HI": null,
      "R2A1LO": null,
      "R2A1HI": null,
      "BR2A1LO": null,
      "BR2A1HI": null,
      "ANL01FL": "",
      "ALBTRVAL": 15.520199999999999,
      "ANRIND": "",
      "BNRIND": "",
      "ABLFL": "",
      "AENTMTFL": "",
      "LBSEQ": 23.0,
      "LBNRIND": "NORMAL",
      "LBSTRESN": 20.4798
    },
    {
      "STUDYID": "CDISCPILOT01",
      "SUBJID": "1023",
      "USUBJID": "01-701-1023",
      "TRTP": "Placebo",
      "TRTPN": 5.397605346934028e-79,
      "TRTA": "Placebo",
      "TRTAN": 5.397605346934028e-79,
      "TRTSDT": 19210.0,
      "TRTEDT": 19237.0,
      "AGE": 64.0,
      "AGEGR1": "<65",
      "AGEGR1N": 1.0,
      "RACE": "WHITE",
      "RACEN": 1.0,
      "SEX": "M",
      "COMP24FL": "N",
      "DSRAEFL": "Y",
      "SAFFL": "Y",
      "AVISIT": "Baseline",
      "AVISITN": 5.397605346934028e-79,
      "ADY": -14.0,
      "ADT": 19196.0,
      "VISIT": "SCREENING 1",
      "VISITNUM": 1.0,
      "PARAM": "Leukocytes (GI/L) change from previous visit, relative to normal range",
      "PARAMCD": "_WBC",
      "PARAMN": 106.0,
      "PARCAT1": "HEM",
      "AVAL": NaN,
      "BASE": null,
      "CHG": null,
      "A1LO": null,
      "A1HI": null,
      "R2A1LO": null,
      "R2A1HI": null,
      "BR2A1LO": null,
      "BR2A1HI": null,
      "ANL01FL": "",
      "ALBTRVAL": 7.269999999999998,
      "ANRIND": "",
      "BNRIND": "",
      "ABLFL": "",
      "AENTMTFL": "",
      "LBSEQ": 37.0,
      "LBNRIND": "NORMAL",
      "LBSTRESN": 8.78
    },
    {
      "STUDYID": "CDISCPILOT01",
      "SUBJID": "1023",
      "USUBJID": "01-701-1023",
      "TRTP": "Placebo",
      "TRTPN": 5.397605346934028e-79,
      "TRTA": "Placebo",
      "TRTAN": 5.397605346934028e-79,
      "TRTSDT": 19210.0,
      "TRTEDT": 19237.0,
      "AGE": 64.0,
      "AGEGR1": "<65",
      "AGEGR1N": 1.0,
      "RACE": "WHITE",
      "RACEN": 1.0,
      "SEX": "M",
      "COMP24FL": "N",
      "DSRAEFL": "Y",
      "SAFFL": "Y",
      "AVISIT": "Baseline",
      "AVISITN": 5.397605346934028e-79,
      "ADY": -14.0,
      "ADT": 19196.0,
      "VISIT": "SCREENING 1",
      "VISITNUM": 1.0,
      "PARAM": "Lymphocytes (GI/L) change from previous visit, relative to normal range",
      "PARAMCD": "_LYM",
      "PARAMN": 107.0,
      "PARCAT1": "HEM",
      "AVAL": NaN,
      "BASE": null,
      "CHG": null,
      "A1LO": null,
      "A1HI": null,
      "R2A1LO": null,
      "R2A1HI": null,
      "BR2A1LO": null,
      "BR2A1HI": null,
      "ANL01FL": "",
      "ALBTRVAL": 2.81,
      "ANRIND": "",
      "BNRIND": "",
      "ABLFL": "",
      "AENTMTFL": "",
      "LBSEQ": 21.0,
      "LBNRIND": "NORMAL",
      "LBSTRESN": 1.69
    },
    {
      "STUDYID": "CDISCPILOT01",
      "SUBJID": "1023",
      "USUBJID": "01-701-1023",
      "TRTP": "Placebo",
      "TRTPN": 5.397605346934028e-79,
      "TRTA": "Placebo",
      "TRTAN": 5.397605346934028e-79,
      "TRTSDT": 19210.0,
      "TRTEDT": 19237.0,
      "AGE": 64.0,
      "AGEGR1": "<65",
      "AGEGR1N": 1.0,
      "RACE": "WHITE",
      "RACEN": 1.0,
      "SEX": "M",
      "COMP24FL": "N",
      "DSRAEFL": "Y",
      "SAFFL": "Y",
      "AVISIT": "Baseline",
      "AVISITN": 5.397605346934028e-79,
      "ADY": -14.0,
      "ADT": 19196.0,
      "VISIT": "SCREENING 1",
      "VISITNUM": 1.0,
      "PARAM": "Monocytes (GI/L) change from previous visit, relative to normal range",
      "PARAMCD": "_MONO",
      "PARAMN": 108.0,
      "PARCAT1": "HEM",
      "AVAL": NaN,
      "BASE": null,
      "CHG": null,
      "A1LO": null,
      "A1HI": null,
      "R2A1LO": null,
      "R2A1HI": null,
      "BR2A1LO": null,
      "BR2A1HI": null,
      "ANL01FL": "",
      "ALBTRVAL": 0.7699999999999999,
      "ANRIND": "",
      "BNRIND": "",
      "ABLFL": "",
      "AENTMTFL": "",
      "LBSEQ": 25.0,
      "LBNRIND": "NORMAL",
      "LBSTRESN": 0.61
    },
    {
      "STUDYID": "CDISCPILOT01",
      "SUBJID": "1023",
      "USUBJID": "01-701-1023",
      "TRTP": "Placebo",
      "TRTPN": 5.397605346934028e-79,
      "TRTA": "Placebo",
      "TRTAN": 5.397605346934028e-79,
      "TRTSDT": 19210.0,
      "TRTEDT": 19237.0,
      "AGE": 64.0,
      "AGEGR1": "<65",
      "AGEGR1N": 1.0,
      "RACE": "WHITE",
      "RACEN": 1.0,
      "SEX": "M",
      "COMP24FL": "N",
      "DSRAEFL": "Y",
      "SAFFL": "Y",
      "AVISIT": "Baseline",
      "AVISITN": 5.397605346934028e-79,
      "ADY": -14.0,
      "ADT": 19196.0,
      "VISIT": "SCREENING 1",
      "VISITNUM": 1.0,
      "PARAM": "Eosinophils (GI/L) change from previous visit, relative to normal range",
      "PARAMCD": "_EOS",
      "PARAMN": 109.0,
      "PARCAT1": "HEM",
      "AVAL": NaN,
      "BASE": null,
      "CHG": null,
      "A1LO": null,
      "A1HI": null,
      "R2A1LO": null,
      "R2A1HI": null,
      "BR2A1LO": null,
      "BR2A1HI": null,
      "ANL01FL": "",
      "ALBTRVAL": 0.765,
      "ANRIND": "",
      "BNRIND": "",
      "ABLFL": "",
      "AENTMTFL": "",
      "LBSEQ": 14.0,
      "LBNRIND": "NORMAL",
      "LBSTRESN": 0.09
    },
    {
      "STUDYID": "CDISCPILOT01",
      "SUBJID": "1023",
      "USUBJID": "01-701-1023",
      "TRTP": "Placebo",
      "TRTPN": 5.397605346934028e-79,
      "TRTA": "Placebo",
      "TRTAN": 5.397605346934028e-79,
      "TRTSDT": 19210.0,
      "TRTEDT": 19237.0,
      "AGE": 64.0,
      "AGEGR1": "<65",
      "AGEGR1N": 1.0,
      "RACE": "WHITE",
      "RACEN": 1.0,
      "SEX": "M",
      "COMP24FL": "N",
      "DSRAEFL": "Y",
      "SAFFL": "Y",
      "AVISIT": "Baseline",
      "AVISITN": 5.397605346934028e-79,
      "ADY": -14.0,
      "ADT": 19196.0,
      "VISIT": "SCREENING 1",
      "VISITNUM": 1.0,
      "PARAM": "Basophils (GI/L) change from previous visit, relative to normal range",
      "PARAMCD": "_BASO",
      "PARAMN": 110.0,
      "PARCAT1": "HEM",
      "AVAL": NaN,
      "BASE": null,
      "CHG": null,
      "A1LO": null,
      "A1HI": null,
      "R2A1LO": null,
      "R2A1HI": null,
      "BR2A1LO": null,
      "BR2A1HI": null,
      "ANL01FL": "",
      "ALBTRVAL": 0.24,
      "ANRIND": "",
      "BNRIND": "",
      "ABLFL": "",
      "AENTMTFL": "",
      "LBSEQ": 5.0,
      "LBNRIND": "NORMAL",
      "LBSTRESN": 0.06
    },
    {
      "STUDYID": "CDISCPILOT01",
      "SUBJID": "1023",
      "USUBJID": "01-701-1023",
      "TRTP": "Placebo",
      "TRTPN": 5.397605346934028e-79,
      "TRTA": "Placebo",
      "TRTAN": 5.397605346934028e-79,
      "TRTSDT": 19210.0,
      "TRTEDT": 19237.0,
      "AGE": 64.0,
      "AGEGR1": "<65",
      "AGEGR1N": 1.0,
      "RACE": "WHITE",
      "RACEN": 1.0,
      "SEX": "M",
      "COMP24FL": "N",
      "DSRAEFL": "Y",
      "SAFFL": "Y",
      "AVISIT": "Baseline",
      "AVISITN": 5.397605346934028e-79,
      "ADY": -14.0,
      "ADT": 19196.0,
      "VISIT": "SCREENING 1",
      "VISITNUM": 1.0,
      "PARAM": "Platelet (GI/L) change from previous visit, relative to normal range",
      "PARAMCD": "_PLAT",
      "PARAMN": 111.0,
      "PARCAT1": "HEM",
      "AVAL": NaN,
      "BASE": null,
      "CHG": null,
      "A1LO": null,
      "A1HI": null,
      "R2A1LO": null,
      "R2A1HI": null,
      "BR2A1LO": null,
      "BR2A1HI": null,
      "ANL01FL": "",
      "ALBTRVAL": 374.0,
      "ANRIND": "",
      "BNRIND": "",
      "ABLFL": "",
      "AENTMTFL": "",
      "LBSEQ": 29.0,
      "LBNRIND": "NORMAL",
      "LBSTRESN": 217.0
    },
    {
      "STUDYID": "CDISCPILOT01",
      "SUBJID": "1023",
      "USUBJID": "01-701-1023",
      "TRTP": "Placebo",
      "TRTPN": 5.397605346934028e-79,
      "TRTA": "Placebo",
      "TRTAN": 5.397605346934028e-79,
      "TRTSDT": 19210.0,
      "TRTEDT": 19237.0,
      "AGE": 64.0,
      "AGEGR1": "<65",
      "AGEGR1N": 1.0,
      "RACE": "WHITE",
      "RACEN": 1.0,
      "SEX": "M",
      "COMP24FL": "N",
      "DSRAEFL": "Y",
      "SAFFL": "Y",
      "AVISIT": "Baseline",
      "AVISITN": 5.397605346934028e-79,
      "ADY": -14.0,
      "ADT": 19196.0,
      "VISIT": "SCREENING 1",
      "VISITNUM": 1.0,
      "PARAM": "Erythrocytes (TI/L) change from previous visit, relative to normal range",
      "PARAMCD": "_RBC",
      "PARAMN": 112.0,
      "PARCAT1": "HEM",
      "AVAL": NaN,
      "BASE": null,
      "CHG": null,
      "A1LO": null,
      "A1HI": null,
      "R2A1LO": null,
      "R2A1HI": null,
      "BR2A1LO": null,
      "BR2A1HI": null,
      "ANL01FL": "",
      "ALBTRVAL": 3.3999999999999995,
      "ANRIND": "",
      "BNRIND": "",
      "ABLFL": "",
      "AENTMTFL": "",
      "LBSEQ": 31.0,
      "LBNRIND": "NORMAL",
      "LBSTRESN": 5.3
    },
    {
      "STUDYID": "CDISCPILOT01",
      "SUBJID": "1023",
      "USUBJID": "01-701-1023",
      "TRTP": "Placebo",
      "TRTPN": 5.397605346934028e-79,
      "TRTA": "Placebo",
      "TRTAN": 5.397605346934028e-79,
      "TRTSDT": 19210.0,
      "TRTEDT": 19237.0,
      "AGE": 64.0,
      "AGEGR1": "<65",
      "AGEGR1N": 1.0,
      "RACE": "WHITE",
      "RACEN": 1.0,
      "SEX": "M",
      "COMP24FL": "N",
      "DSRAEFL": "Y",
      "SAFFL": "Y",
      "AVISIT": "Week 2",
      "AVISITN": 2.0,
      "ADY": 23.0,
      "ADT": 19232.0,
      "VISIT": "WEEK 2",
      "VISITNUM": 4.0,
      "PARAM": "Hemoglobin (mmol/L) change from previous visit, relative to normal range",
      "PARAMCD": "_HGB",
      "PARAMN": 101.0,
      "PARCAT1": "HEM",
      "AVAL": -0.6,
      "BASE": null,
      "CHG": null,
      "A1LO": null,
      "A1HI": null,
      "R2A1LO": null,
      "R2A1HI": null,
      "BR2A1LO": null,
      "BR2A1HI": null,
      "ANL01FL": "Y",
      "ALBTRVAL": 6.578060000000001,
      "ANRIND": "N",
      "BNRIND": "",
      "ABLFL": "",
      "AENTMTFL": "",
      "LBSEQ": 55.0,
      "LBNRIND": "NORMAL",
      "LBSTRESN": 9.246939999999999
    },
    {
      "STUDYID": "CDISCPILOT01",
      "SUBJID": "1023",
      "USUBJID": "01-701-1023",
      "TRTP": "Placebo",
      "TRTPN": 5.397605346934028e-79,
      "TRTA": "Placebo",
      "TRTAN": 5.397605346934028e-79,
      "TRTSDT": 19210.0,
      "TRTEDT": 19237.0,
      "AGE": 64.0,
      "AGEGR1": "<65",
      "AGEGR1N": 1.0,
      "RACE": "WHITE",
      "RACEN": 1.0,
      "SEX": "M",
      "COMP24FL": "N",
      "DSRAEFL": "Y",
      "SAFFL": "Y",
      "AVISIT": "Week 2",
      "AVISITN": 2.0,
      "ADY": 23.0,
      "ADT": 19232.0,
      "VISIT": "WEEK 2",
      "VISITNUM": 4.0,
      "PARAM": "Hematocrit change from previous visit, relative to normal range",
      "PARAMCD": "_HCT",
      "PARAMN": 102.0,
      "PARCAT1": "HEM",
      "AVAL": -0.4,
      "BASE": null,
      "CHG": null,
      "A1LO": null,
      "A1HI": null,
      "R2A1LO": null,
      "R2A1HI": null,
      "BR2A1LO": null,
      "BR2A1HI": null,
      "ANL01FL": "Y",
      "ALBTRVAL": 0.30499999999999994,
      "ANRIND": "N",
      "BNRIND": "",
      "ABLFL": "",
      "AENTMTFL": "",
      "LBSEQ": 54.0,
      "LBNRIND": "NORMAL",
      "LBSTRESN": 0.45999999999999996
    },
    {
      "STUDYID": "CDISCPILOT01",
      "SUBJID": "1023",
      "USUBJID": "01-701-1023",
      "TRTP": "Placebo",
      "TRTPN": 5.397605346934028e-79,
      "TRTA": "Placebo",
      "TRTAN": 5.397605346934028e-79,
      "TRTSDT": 19210.0,
      "TRTEDT": 19237.0,
      "AGE": 64.0,
      "AGEGR1": "<65",
      "AGEGR1N": 1.0,
      "RACE": "WHITE",
      "RACEN": 1.0,
      "SEX": "M",
      "COMP24FL": "N",
      "DSRAEFL": "Y",
      "SAFFL": "Y",
      "AVISIT": "Week 2",
      "AVISITN": 2.0,
      "ADY": 23.0,
      "ADT": 19232.0,
      "VISIT": "WEEK 2",
      "VISITNUM": 4.0,
      "PARAM": "Ery. Mean Corpuscular Volume (fL) change from previous visit, relative to normal range",
      "PARAMCD": "_MCV",
      "PARAMN": 103.0,
      "PARCAT1": "HEM",
      "AVAL": 0.3,
      "BASE": null,
      "CHG": null,
      "A1LO": null,
      "A1HI": null,
      "R2A1LO": null,
      "R2A1HI": null,
      "BR2A1LO": null,
      "BR2A1HI": null,
      "ANL01FL": "Y",
      "ALBTRVAL": 55.0,
      "ANRIND": "N",
      "BNRIND": "",
      "ABLFL": "",
      "AENTMTFL": "",
      "LBSEQ": 61.0,
      "LBNRIND": "NORMAL",
      "LBSTRESN": 95.0
    },
    {
      "STUDYID": "CDISCPILOT01",
      "SUBJID": "1023",
      "USUBJID": "01-701-1023",
      "TRTP": "Placebo",
      "TRTPN": 5.397605346934028e-79,
      "TRTA": "Placebo",
      "TRTAN": 5.397605346934028e-79,
      "TRTSDT": 19210.0,
      "TRTEDT": 19237.0,
      "AGE": 64.0,
      "AGEGR1": "<65",
      "AGEGR1N": 1.0,
      "RACE": "WHITE",
      "RACEN": 1.0,
      "SEX": "M",
      "COMP24FL": "N",
      "DSRAEFL": "Y",
      "SAFFL": "Y",
      "AVISIT": "Week 2",
      "AVISITN": 2.0,
      "ADY": 23.0,
      "ADT": 19232.0,
      "VISIT": "WEEK 2",
      "VISITNUM": 4.0,
      "PARAM": "Ery. Mean Corpuscular Hemoglobin (fmol(Fe)) change from previous visit, relative to normal range",
      "PARAMCD": "_MCH",
      "PARAMN": 104.0,
      "PARCAT1": "HEM",
      "AVAL": 0.2,
      "BASE": null,
      "CHG": null,
      "A1LO": null,
      "A1HI": null,
      "R2A1LO": null,
      "R2A1HI": null,
      "BR2A1LO": null,
      "BR2A1HI": null,
      "ANL01FL": "Y",
      "ALBTRVAL": 1.2261400000000005,
      "ANRIND": "N",
      "BNRIND": "",
      "ABLFL": "",
      "AENTMTFL": "",
      "LBSEQ": 59.0,
      "LBNRIND": "NORMAL",
      "LBSTRESN": 1.92386
    },
    {
      "STUDYID": "CDISCPILOT01",
      "SUBJID": "1023",
      "USUBJID": "01-701-1023",
      "TRTP": "Placebo",
      "TRTPN": 5.397605346934028e-79,
      "TRTA": "Placebo",
      "TRTAN": 5.397605346934028e-79,
      "TRTSDT": 19210.0,
      "TRTEDT": 19237.0,
      "AGE": 64.0,
      "AGEGR1": "<65",
      "AGEGR1N": 1.0,
      "RACE": "WHITE",
      "RACEN": 1.0,
      "SEX": "M",
      "COMP24FL": "N",
      "DSRAEFL": "Y",
      "SAFFL": "Y",
      "AVISIT": "Week 2",
      "AVISITN": 2.0,
      "ADY": 23.0,
      "ADT": 19232.0,
      "VISIT": "WEEK 2",
      "VISITNUM": 4.0,
      "PARAM": "Ery. Mean Corpuscular HGB Concentration (mmol/L) change from previous visit, relative to normal rang",
      "PARAMCD": "_MCHC",
      "PARAMN": 105.0,
      "PARCAT1": "HEM",
      "AVAL": 5.397605346934028e-79,
      "BASE": null,
      "CHG": null,
      "A1LO": null,
      "A1HI": null,
      "R2A1LO": null,
      "R2A1HI": null,
      "BR2A1LO": null,
      "BR2A1HI": null,
      "ANL01FL": "",
      "ALBTRVAL": 15.520199999999999,
      "ANRIND": "N",
      "BNRIND": "",
      "ABLFL": "",
      "AENTMTFL": "",
      "LBSEQ": 60.0,
      "LBNRIND": "NORMAL",
      "LBSTRESN": 20.4798
    },
    {
      "STUDYID": "CDISCPILOT01",
      "SUBJID": "1023",
      "USUBJID": "01-701-1023",
      "TRTP": "Placebo",
      "TRTPN": 5.397605346934028e-79,
      "TRTA": "Placebo",
      "TRTAN": 5.397605346934028e-79,
      "TRTSDT": 19210.0,
      "TRTEDT": 19237.0,
      "AGE": 64.0,
      "AGEGR1": "<65",
      "AGEGR1N": 1.0,
      "RACE": "WHITE",
      "RACEN": 1.0,
      "SEX": "M",
      "COMP24FL": "N",
      "DSRAEFL": "Y",
      "SAFFL": "Y",
      "AVISIT": "Week 2",
      "AVISITN": 2.0,
      "ADY": 23.0,
      "ADT": 19232.0,
      "VISIT": "WEEK 2",
      "VISITNUM": 4.0,
      "PARAM": "Leukocytes (GI/L) change from previous visit, relative to normal range",
      "PARAMCD": "_WBC",
      "PARAMN": 106.0,
      "PARCAT1": "HEM",
      "AVAL": -0.1,
      "BASE": null,
      "CHG": null,
      "A1LO": null,
      "A1HI": null,
      "R2A1LO": null,
      "R2A1HI": null,
      "BR2A1LO": null,
      "BR2A1HI": null,
      "ANL01FL": "",
      "ALBTRVAL": 7.499999999999998,
      "ANRIND": "N",
      "BNRIND": "",
      "ABLFL": "",
      "AENTMTFL": "",
      "LBSEQ": 72.0,
      "LBNRIND": "NORMAL",
      "LBSTRESN": 8.549999999999999
    },
    {
      "STUDYID": "CDISCPILOT01",
      "SUBJID": "1023",
      "USUBJID": "01-701-1023",
      "TRTP": "Placebo",
      "TRTPN": 5.397605346934028e-79,
      "TRTA": "Placebo",
      "TRTAN": 5.397605346934028e-79,
      "TRTSDT": 19210.0,
      "TRTEDT": 19237.0,
      "AGE": 64.0,
      "AGEGR1": "<65",
      "AGEGR1N": 1.0,
      "RACE": "WHITE",
      "RACEN": 1.0,
      "SEX": "M",
      "COMP24FL": "N",
      "DSRAEFL": "Y",
      "SAFFL": "Y",
      "AVISIT": "Week 2",
      "AVISITN": 2.0,
      "ADY": 23.0,
      "ADT": 19232.0,
      "VISIT": "WEEK 2",
      "VISITNUM": 4.0,
      "PARAM": "Lymphocytes (GI/L) change from previous visit, relative to normal range",
      "PARAMCD": "_LYM",
      "PARAMN": 107.0,
      "PARCAT1": "HEM",
      "AVAL": 0.6,
      "BASE": null,
      "CHG": null,
      "A1LO": null,
      "A1HI": null,
      "R2A1LO": null,
      "R2A1HI": null,
      "BR2A1LO": null,
      "BR2A1HI": null,
      "ANL01FL": "",
      "ALBTRVAL": 2.17,
      "ANRIND": "N",
      "BNRIND": "",
      "ABLFL": "",
      "AENTMTFL": "",
      "LBSEQ": 58.0,
      "LBNRIND": "NORMAL",
      "LBSTRESN": 2.33
    },
    {
      "STUDYID": "CDISCPILOT01",
      "SUBJID": "1023",
      "USUBJID": "01-701-1023",
      "TRTP": "Placebo",
      "TRTPN": 5.397605346934028e-79,
      "TRTA": "Placebo",
      "TRTAN": 5.397605346934028e-79,
      "TRTSDT": 19210.0,
      "TRTEDT": 19237.0,
      "AGE": 64.0,
      "AGEGR1": "<65",
      "AGEGR1N": 1.0,
      "RACE": "WHITE",
      "RACEN": 1.0,
      "SEX": "M",
      "COMP24FL": "N",
      "DSRAEFL": "Y",
      "SAFFL": "Y",
      "AVISIT": "Week 2",
      "AVISITN": 2.0,
      "ADY": 23.0,
      "ADT": 19232.0,
      "VISIT": "WEEK 2",
      "VISITNUM": 4.0,
      "PARAM": "Monocytes (GI/L) change from previous visit, relative to normal range",
      "PARAMCD": "_MONO",
      "PARAMN": 108.0,
      "PARCAT1": "HEM",
      "AVAL": 0.1,
      "BASE": null,
      "CHG": null,
      "A1LO": null,
      "A1HI": null,
      "R2A1LO": null,
      "R2A1HI": null,
      "BR2A1LO": null,
      "BR2A1HI": null,
      "ANL01FL": "",
      "ALBTRVAL": 0.74,
      "ANRIND": "N",
      "BNRIND": "",
      "ABLFL": "",
      "AENTMTFL": "",
      "LBSEQ": 62.0,
      "LBNRIND": "NORMAL",
      "LBSTRESN": 0.6399999999999999
    },
    {
      "STUDYID": "CDISCPILOT01",
      "SUBJID": "1023",
      "USUBJID": "01-701-1023",
      "TRTP": "Placebo",
      "TRTPN": 5.397605346934028e-79,
      "TRTA": "Placebo",
      "TRTAN": 5.397605346934028e-79,
      "TRTSDT": 19210.0,
      "TRTEDT": 19237.0,
      "AGE": 64.0,
      "AGEGR1": "<65",
      "AGEGR1N": 1.0,
      "RACE": "WHITE",
      "RACEN": 1.0,
      "SEX": "M",
      "COMP24FL": "N",
      "DSRAEFL": "Y",
      "SAFFL": "Y",
      "AVISIT": "Week 2",
      "AVISITN": 2.0,
      "ADY": 23.0,
      "ADT": 19232.0,
      "VISIT": "WEEK 2",
      "VISITNUM": 4.0,
      "PARAM": "Eosinophils (GI/L) change from previous visit, relative to normal range",
      "PARAMCD": "_EOS",
      "PARAMN": 109.0,
      "PARCAT1": "HEM",
      "AVAL": -0.1,
      "BASE": null,
      "CHG": null,
      "A1LO": null,
      "A1HI": null,
      "R2A1LO": null,
      "R2A1HI": null,
      "BR2A1LO": null,
      "BR2A1HI": null,
      "ANL01FL": "Y",
      "ALBTRVAL": 0.7849999999999999,
      "ANRIND": "N",
      "BNRIND": "",
      "ABLFL": "",
      "AENTMTFL": "",
      "LBSEQ": 51.0,
      "LBNRIND": "NORMAL",
      "LBSTRESN": 0.07
    },
    {
      "STUDYID": "CDISCPILOT01",
      "SUBJID": "1023",
      "USUBJID": "01-701-1023",
      "TRTP": "Placebo",
      "TRTPN": 5.397605346934028e-79,
      "TRTA": "Placebo",
      "TRTAN": 5.397605346934028e-79,
      "TRTSDT": 19210.0,
      "TRTEDT": 19237.0,
      "AGE": 64.0,
      "AGEGR1": "<65",
      "AGEGR1N": 1.0,
      "RACE": "WHITE",
      "RACEN": 1.0,
      "SEX": "M",
      "COMP24FL": "N",
      "DSRAEFL": "Y",
      "SAFFL": "Y",
      "AVISIT": "Week 2",
      "AVISITN": 2.0,
      "ADY": 23.0,
      "ADT": 19232.0,
      "VISIT": "WEEK 2",
      "VISITNUM": 4.0,
      "PARAM": "Basophils (GI/L) change from previous visit, relative to normal range",
      "PARAMCD": "_BASO",
      "PARAMN": 110.0,
      "PARCAT1": "HEM",
      "AVAL": -0.3,
      "BASE": null,
      "CHG": null,
      "A1LO": null,
      "A1HI": null,
      "R2A1LO": null,
      "R2A1HI": null,
      "BR2A1LO": null,
      "BR2A1HI": null,
      "ANL01FL": "Y",
      "ALBTRVAL": 0.27,
      "ANRIND": "N",
      "BNRIND": "",
      "ABLFL": "",
      "AENTMTFL": "",
      "LBSEQ": 42.0,
      "LBNRIND": "NORMAL",
      "LBSTRESN": 0.03
    },
    {
      "STUDYID": "CDISCPILOT01",
      "SUBJID": "1023",
      "USUBJID": "01-701-1023",
      "TRTP": "Placebo",
      "TRTPN": 5.397605346934028e-79,
      "TRTA": "Placebo",
      "TRTAN": 5.397605346934028e-79,
      "TRTSDT": 19210.0,
      "TRTEDT": 19237.0,
      "AGE": 64.0,
      "AGEGR1": "<65",
      "AGEGR1N": 1.0,
      "RACE": "WHITE",
      "RACEN": 1.0,
      "SEX": "M",
      "COMP24FL": "N",
      "DSRAEFL": "Y",
      "SAFFL": "Y",
      "AVISIT": "Week 2",
      "AVISITN": 2.0,
      "ADY": 23.0,
      "ADT": 19232.0,
      "VISIT": "WEEK 2",
      "VISITNUM": 4.0,
      "PARAM": "Platelet (GI/L) change from previous visit, relative to normal range",
      "PARAMCD": "_PLAT",
      "PARAMN": 111.0,
      "PARCAT1": "HEM",
      "AVAL": 5.397605346934028e-79,
      "BASE": null,
      "CHG": null,
      "A1LO": null,
      "A1HI": null,
      "R2A1LO": null,
      "R2A1HI": null,
      "BR2A1LO": null,
      "BR2A1HI": null,
      "ANL01FL": "",
      "ALBTRVAL": 369.0,
      "ANRIND": "N",
      "BNRIND": "",
      "ABLFL": "",
      "AENTMTFL": "",
      "LBSEQ": 66.0,
      "LBNRIND": "NORMAL",
      "LBSTRESN": 222.0
    },
    {
      "STUDYID": "CDISCPILOT01",
      "SUBJID": "1023",
      "USUBJID": "01-701-1023",
      "TRTP": "Placebo",
      "TRTPN": 5.397605346934028e-79,
      "TRTA": "Placebo",
      "TRTAN": 5.397605346934028e-79,
      "TRTSDT": 19210.0,
      "TRTEDT": 19237.0,
      "AGE": 64.0,
      "AGEGR1": "<65",
      "AGEGR1N": 1.0,
      "RACE": "WHITE",
      "RACEN": 1.0,
      "SEX": "M",
      "COMP24FL": "N",
      "DSRAEFL": "Y",
      "SAFFL": "Y",
      "AVISIT": "Week 2",
      "AVISITN": 2.0,
      "ADY": 23.0,
      "ADT": 19232.0,
      "VISIT": "WEEK 2",
      "VISITNUM": 4.0,
      "PARAM": "Erythrocytes (TI/L) change from previous visit, relative to normal range",
      "PARAMCD": "_RBC",
      "PARAMN": 112.0,
      "PARCAT1": "HEM",
      "AVAL": -0.6,
      "BASE": null,
      "CHG": null,
      "A1LO": null,
      "A1HI": null,
      "R2A1LO": null,
      "R2A1HI": null,
      "BR2A1LO": null,
      "BR2A1HI": null,
      "ANL01FL": "Y",
      "ALBTRVAL": 3.8999999999999995,
      "ANRIND": "N",
      "BNRIND": "",
      "ABLFL": "",
      "AENTMTFL": "",
      "LBSEQ": 68.0,
      "LBNRIND": "NORMAL",
      "LBSTRESN": 4.8
    },
    {
      "STUDYID": "CDISCPILOT01",
      "SUBJID": "1023",
      "USUBJID": "01-701-1023",
      "TRTP": "Placebo",
      "TRTPN": 5.397605346934028e-79,
      "TRTA": "Placebo",
      "TRTAN": 5.397605346934028e-79,
      "TRTSDT": 19210.0,
      "TRTEDT": 19237.0,
      "AGE": 64.0,
      "AGEGR1": "<65",
      "AGEGR1N": 1.0,
      "RACE": "WHITE",
      "RACEN": 1.0,
      "SEX": "M",
      "COMP24FL": "N",
      "DSRAEFL": "Y",
      "SAFFL": "Y",
      "AVISIT": "Week 4",
      "AVISITN": 4.0,
      "ADY": 29.0,
      "ADT": 19238.0,
      "VISIT": "WEEK 4",
      "VISITNUM": 5.0,
      "PARAM": "Hemoglobin (mmol/L) change from previous visit, relative to normal range",
      "PARAMCD": "_HGB",
      "PARAMN": 101.0,
      "PARCAT1": "HEM",
      "AVAL": 0.2,
      "BASE": null,
      "CHG": null,
      "A1LO": null,
      "A1HI": null,
      "R2A1LO": null,
      "R2A1HI": null,
      "BR2A1LO": null,
      "BR2A1HI": null,
      "ANL01FL": "",
      "ALBTRVAL": 6.32982,
      "ANRIND": "N",
      "BNRIND": "",
      "ABLFL": "",
      "AENTMTFL": "Y",
      "LBSEQ": 90.0,
      "LBNRIND": "NORMAL",
      "LBSTRESN": 9.49518
    },
    {
      "STUDYID": "CDISCPILOT01",
      "SUBJID": "1023",
      "USUBJID": "01-701-1023",
      "TRTP": "Placebo",
      "TRTPN": 5.397605346934028e-79,
      "TRTA": "Placebo",
      "TRTAN": 5.397605346934028e-79,
      "TRTSDT": 19210.0,
      "TRTEDT": 19237.0,
      "AGE": 64.0,
      "AGEGR1": "<65",
      "AGEGR1N": 1.0,
      "RACE": "WHITE",
      "RACEN": 1.0,
      "SEX": "M",
      "COMP24FL": "N",
      "DSRAEFL": "Y",
      "SAFFL": "Y",
      "AVISIT": "End of Treatment",
      "AVISITN": 99.0,
      "ADY": 29.0,
      "ADT": 19238.0,
      "VISIT": "WEEK 4",
      "VISITNUM": 5.0,
      "PARAM": "Hemoglobin (mmol/L) change from previous visit, relative to normal range",
      "PARAMCD": "_HGB",
      "PARAMN": 101.0,
      "PARCAT1": "HEM",
      "AVAL": 0.2,
      "BASE": null,
      "CHG": null,
      "A1LO": null,
      "A1HI": null,
      "R2A1LO": null,
      "R2A1HI": null,
      "BR2A1LO": null,
      "BR2A1HI": null,
      "ANL01FL": "",
      "ALBTRVAL": 6.32982,
      "ANRIND": "N",
      "BNRIND": "",
      "ABLFL": "",
      "AENTMTFL": "Y",
      "LBSEQ": 90.0,
      "LBNRIND": "NORMAL",
      "LBSTRESN": 9.49518
    },
    {
      "STUDYID": "CDISCPILOT01",
      "SUBJID": "1023",
      "USUBJID": "01-701-1023",
      "TRTP": "Placebo",
      "TRTPN": 5.397605346934028e-79,
      "TRTA": "Placebo",
      "TRTAN": 5.397605346934028e-79,
      "TRTSDT": 19210.0,
      "TRTEDT": 19237.0,
      "AGE": 64.0,
      "AGEGR1": "<65",
      "AGEGR1N": 1.0,
      "RACE": "WHITE",
      "RACEN": 1.0,
      "SEX": "M",
      "COMP24FL": "N",
      "DSRAEFL": "Y",
      "SAFFL": "Y",
      "AVISIT": "Week 4",
      "AVISITN": 4.0,
      "ADY": 29.0,
      "ADT": 19238.0,
      "VISIT": "WEEK 4",
      "VISITNUM": 5.0,
      "PARAM": "Hematocrit change from previous visit, relative to normal range",
      "PARAMCD": "_HCT",
      "PARAMN": 102.0,
      "PARCAT1": "HEM",
      "AVAL": 0.3,
      "BASE": null,
      "CHG": null,
      "A1LO": null,
      "A1HI": null,
      "R2A1LO": null,
      "R2A1HI": null,
      "BR2A1LO": null,
      "BR2A1HI": null,
      "ANL01FL": "",
      "ALBTRVAL": 0.295,
      "ANRIND": "N",
      "BNRIND": "",
      "ABLFL": "",
      "AENTMTFL": "Y",
      "LBSEQ": 89.0,
      "LBNRIND": "NORMAL",
      "LBSTRESN": 0.48
    },
    {
      "STUDYID": "CDISCPILOT01",
      "SUBJID": "1023",
      "USUBJID": "01-701-1023",
      "TRTP": "Placebo",
      "TRTPN": 5.397605346934028e-79,
      "TRTA": "Placebo",
      "TRTAN": 5.397605346934028e-79,
      "TRTSDT": 19210.0,
      "TRTEDT": 19237.0,
      "AGE": 64.0,
      "AGEGR1": "<65",
      "AGEGR1N": 1.0,
      "RACE": "WHITE",
      "RACEN": 1.0,
      "SEX": "M",
      "COMP24FL": "N",
      "DSRAEFL": "Y",
      "SAFFL": "Y",
      "AVISIT": "End of Treatment",
      "AVISITN": 99.0,
      "ADY": 29.0,
      "ADT": 19238.0,
      "VISIT": "WEEK 4",
      "VISITNUM": 5.0,
      "PARAM": "Hematocrit change from previous visit, relative to normal range",
      "PARAMCD": "_HCT",
      "PARAMN": 102.0,
      "PARCAT1": "HEM",
      "AVAL": 0.3,
      "BASE": null,
      "CHG": null,
      "A1LO": null,
      "A1HI": null,
      "R2A1LO": null,
      "R2A1HI": null,
      "BR2A1LO": null,
      "BR2A1HI": null,
      "ANL01FL": "",
      "ALBTRVAL": 0.295,
      "ANRIND": "N",
      "BNRIND": "",
      "ABLFL": "",
      "AENTMTFL": "Y",
      "LBSEQ": 89.0,
      "LBNRIND": "NORMAL",
      "LBSTRESN": 0.48
    },
    {
      "STUDYID": "CDISCPILOT01",
      "SUBJID": "1023",
      "USUBJID": "01-701-1023",
      "TRTP": "Placebo",
      "TRTPN": 5.397605346934028e-79,
      "TRTA": "Placebo",
      "TRTAN": 5.397605346934028e-79,
      "TRTSDT": 19210.0,
      "TRTEDT": 19237.0,
      "AGE": 64.0,
      "AGEGR1": "<65",
      "AGEGR1N": 1.0,
      "RACE": "WHITE",
      "RACEN": 1.0,
      "SEX": "M",
      "COMP24FL": "N",
      "DSRAEFL": "Y",
      "SAFFL": "Y",
      "AVISIT": "Week 4",
      "AVISITN": 4.0,
      "ADY": 29.0,
      "ADT": 19238.0,
      "VISIT": "WEEK 4",
      "VISITNUM": 5.0,
      "PARAM": "Ery. Mean Corpuscular Volume (fL) change from previous visit, relative to normal range",
      "PARAMCD": "_MCV",
      "PARAMN": 103.0,
      "PARCAT1": "HEM",
      "AVAL": -0.3,
      "BASE": null,
      "CHG": null,
      "A1LO": null,
      "A1HI": null,
      "R2A1LO": null,
      "R2A1HI": null,
      "BR2A1LO": null,
      "BR2A1HI": null,
      "ANL01FL": "",
      "ALBTRVAL": 58.0,
      "ANRIND": "N",
      "BNRIND": "",
      "ABLFL": "",
      "AENTMTFL": "Y",
      "LBSEQ": 96.0,
      "LBNRIND": "NORMAL",
      "LBSTRESN": 92.0
    },
    {
      "STUDYID": "CDISCPILOT01",
      "SUBJID": "1023",
      "USUBJID": "01-701-1023",
      "TRTP": "Placebo",
      "TRTPN": 5.397605346934028e-79,
      "TRTA": "Placebo",
      "TRTAN": 5.397605346934028e-79,
      "TRTSDT": 19210.0,
      "TRTEDT": 19237.0,
      "AGE": 64.0,
      "AGEGR1": "<65",
      "AGEGR1N": 1.0,
      "RACE": "WHITE",
      "RACEN": 1.0,
      "SEX": "M",
      "COMP24FL": "N",
      "DSRAEFL": "Y",
      "SAFFL": "Y",
      "AVISIT": "End of Treatment",
      "AVISITN": 99.0,
      "ADY": 29.0,
      "ADT": 19238.0,
      "VISIT": "WEEK 4",
      "VISITNUM": 5.0,
      "PARAM": "Ery. Mean Corpuscular Volume (fL) change from previous visit, relative to normal range",
      "PARAMCD": "_MCV",
      "PARAMN": 103.0,
      "PARCAT1": "HEM",
      "AVAL": -0.3,
      "BASE": null,
      "CHG": null,
      "A1LO": null,
      "A1HI": null,
      "R2A1LO": null,
      "R2A1HI": null,
      "BR2A1LO": null,
      "BR2A1HI": null,
      "ANL01FL": "",
      "ALBTRVAL": 58.0,
      "ANRIND": "N",
      "BNRIND": "",
      "ABLFL": "",
      "AENTMTFL": "Y",
      "LBSEQ": 96.0,
      "LBNRIND": "NORMAL",
      "LBSTRESN": 92.0
    },
    {
      "STUDYID": "CDISCPILOT01",
      "SUBJID": "1023",
      "USUBJID": "01-701-1023",
      "TRTP": "Placebo",
      "TRTPN": 5.397605346934028e-79,
      "TRTA": "Placebo",
      "TRTAN": 5.397605346934028e-79,
      "TRTSDT": 19210.0,
      "TRTEDT": 19237.0,
      "AGE": 64.0,
      "AGEGR1": "<65",
      "AGEGR1N": 1.0,
      "RACE": "WHITE",
      "RACEN": 1.0,
      "SEX": "M",
      "COMP24FL": "N",
      "DSRAEFL": "Y",
      "SAFFL": "Y",
      "AVISIT": "Week 4",
      "AVISITN": 4.0,
      "ADY": 29.0,
      "ADT": 19238.0,
      "VISIT": "WEEK 4",
      "VISITNUM": 5.0,
      "PARAM": "Ery. Mean Corpuscular Hemoglobin (fmol(Fe)) change from previous visit, relative to normal range",
      "PARAMCD": "_MCH",
      "PARAMN": 104.0,
      "PARCAT1": "HEM",
      "AVAL": -0.2,
      "BASE": null,
      "CHG": null,
      "A1LO": null,
      "A1HI": null,
      "R2A1LO": null,
      "R2A1HI": null,
      "BR2A1LO": null,
      "BR2A1HI": null,
      "ANL01FL": "",
      "ALBTRVAL": 1.2882000000000005,
      "ANRIND": "N",
      "BNRIND": "",
      "ABLFL": "",
      "AENTMTFL": "Y",
      "LBSEQ": 94.0,
      "LBNRIND": "NORMAL",
      "LBSTRESN": 1.8618
    },
    {
      "STUDYID": "CDISCPILOT01",
      "SUBJID": "1023",
      "USUBJID": "01-701-1023",
      "TRTP": "Placebo",
      "TRTPN": 5.397605346934028e-79,
      "TRTA": "Placebo",
      "TRTAN": 5.397605346934028e-79,
      "TRTSDT": 19210.0,
      "TRTEDT": 19237.0,
      "AGE": 64.0,
      "AGEGR1": "<65",
      "AGEGR1N": 1.0,
      "RACE": "WHITE",
      "RACEN": 1.0,
      "SEX": "M",
      "COMP24FL": "N",
      "DSRAEFL": "Y",
      "SAFFL": "Y",
      "AVISIT": "End of Treatment",
      "AVISITN": 99.0,
      "ADY": 29.0,
      "ADT": 19238.0,
      "VISIT": "WEEK 4",
      "VISITNUM": 5.0,
      "PARAM": "Ery. Mean Corpuscular Hemoglobin (fmol(Fe)) change from previous visit, relative to normal range",
      "PARAMCD": "_MCH",
      "PARAMN": 104.0,
      "PARCAT1": "HEM",
      "AVAL": -0.2,
      "BASE": null,
      "CHG": null,
      "A1LO": null,
      "A1HI": null,
      "R2A1LO": null,
      "R2A1HI": null,
      "BR2A1LO": null,
      "BR2A1HI": null,
      "ANL01FL": "",
      "ALBTRVAL": 1.2882000000000005,
      "ANRIND": "N",
      "BNRIND": "",
      "ABLFL": "",
      "AENTMTFL": "Y",
      "LBSEQ": 94.0,
      "LBNRIND": "NORMAL",
      "LBSTRESN": 1.8618
    },
    {
      "STUDYID": "CDISCPILOT01",
      "SUBJID": "1023",
      "USUBJID": "01-701-1023",
      "TRTP": "Placebo",
      "TRTPN": 5.397605346934028e-79,
      "TRTA": "Placebo",
      "TRTAN": 5.397605346934028e-79,
      "TRTSDT": 19210.0,
      "TRTEDT": 19237.0,
      "AGE": 64.0,
      "AGEGR1": "<65",
      "AGEGR1N": 1.0,
      "RACE": "WHITE",
      "RACEN": 1.0,
      "SEX": "M",
      "COMP24FL": "N",
      "DSRAEFL": "Y",
      "SAFFL": "Y",
      "AVISIT": "Week 4",
      "AVISITN": 4.0,
      "ADY": 29.0,
      "ADT": 19238.0,
      "VISIT": "WEEK 4",
      "VISITNUM": 5.0,
      "PARAM": "Ery. Mean Corpuscular HGB Concentration (mmol/L) change from previous visit, relative to normal rang",
      "PARAMCD": "_MCHC",
      "PARAMN": 105.0,
      "PARCAT1": "HEM",
      "AVAL": -0.2,
      "BASE": null,
      "CHG": null,
      "A1LO": null,
      "A1HI": null,
      "R2A1LO": null,
      "R2A1HI": null,
      "BR2A1LO": null,
      "BR2A1HI": null,
      "ANL01FL": "Y",
      "ALBTRVAL": 16.1408,
      "ANRIND": "N",
      "BNRIND": "",
      "ABLFL": "",
      "AENTMTFL": "Y",
      "LBSEQ": 95.0,
      "LBNRIND": "NORMAL",
      "LBSTRESN": 19.8592
    },
    {
      "STUDYID": "CDISCPILOT01",
      "SUBJID": "1023",
      "USUBJID": "01-701-1023",
      "TRTP": "Placebo",
      "TRTPN": 5.397605346934028e-79,
      "TRTA": "Placebo",
      "TRTAN": 5.397605346934028e-79,
      "TRTSDT": 19210.0,
      "TRTEDT": 19237.0,
      "AGE": 64.0,
      "AGEGR1": "<65",
      "AGEGR1N": 1.0,
      "RACE": "WHITE",
      "RACEN": 1.0,
      "SEX": "M",
      "COMP24FL": "N",
      "DSRAEFL": "Y",
      "SAFFL": "Y",
      "AVISIT": "End of Treatment",
      "AVISITN": 99.0,
      "ADY": 29.0,
      "ADT": 19238.0,
      "VISIT": "WEEK 4",
      "VISITNUM": 5.0,
      "PARAM": "Ery. Mean Corpuscular HGB Concentration (mmol/L) change from previous visit, relative to normal rang",
      "PARAMCD": "_MCHC",
      "PARAMN": 105.0,
      "PARCAT1": "HEM",
      "AVAL": -0.2,
      "BASE": null,
      "CHG": null,
      "A1LO": null,
      "A1HI": null,
      "R2A1LO": null,
      "R2A1HI": null,
      "BR2A1LO": null,
      "BR2A1HI": null,
      "ANL01FL": "Y",
      "ALBTRVAL": 16.1408,
      "ANRIND": "N",
      "BNRIND": "",
      "ABLFL": "",
      "AENTMTFL": "Y",
      "LBSEQ": 95.0,
      "LBNRIND": "NORMAL",
      "LBSTRESN": 19.8592
    },
    {
      "STUDYID": "CDISCPILOT01",
      "SUBJID": "1023",
      "USUBJID": "01-701-1023",
      "TRTP": "Placebo",
      "TRTPN": 5.397605346934028e-79,
      "TRTA": "Placebo",
      "TRTAN": 5.397605346934028e-79,
      "TRTSDT": 19210.0,
      "TRTEDT": 19237.0,
      "AGE": 64.0,
      "AGEGR1": "<65",
      "AGEGR1N": 1.0,
      "RACE": "WHITE",
      "RACEN": 1.0,
