{
  "name": "ADLBHY",
  "total_rows": 9954,
  "unique_subjects": 254,
  "columns": [
    {
      "name": "STUDYID",
      "type": "string"
    },
    {
      "name": "SUBJID",
      "type": "string"
    },
    {
      "name": "USUBJID",
      "type": "string"
    },
    {
      "name": "TRTP",
      "type": "string"
    },
    {
      "name": "TRTPN",
      "type": "number"
    },
    {
      "name": "TRTA",
      "type": "string"
    },
    {
      "name": "TRTAN",
      "type": "number"
    },
    {
      "name": "TRTSDT",
      "type": "number"
    },
    {
      "name": "TRTEDT",
      "type": "number"
    },
    {
      "name": "AGE",
      "type": "number"
    },
    {
      "name": "AGEGR1",
      "type": "string"
    },
    {
      "name": "AGEGR1N",
      "type": "number"
    },
    {
      "name": "RACE",
      "type": "string"
    },
    {
      "name": "RACEN",
      "type": "number"
    },
    {
      "name": "SEX",
      "type": "string"
    },
    {
      "name": "COMP24FL",
      "type": "string"
    },
    {
      "name": "DSRAEFL",
      "type": "string"
    },
    {
      "name": "SAFFL",
      "type": "string"
    },
    {
      "name": "AVISIT",
      "type": "string"
    },
    {
      "name": "AVISITN",
      "type": "number"
    },
    {
      "name": "ADY",
      "type": "number"
    },
    {
      "name": "ADT",
      "type": "number"
    },
    {
      "name": "VISIT",
      "type": "string"
    },
    {
      "name": "VISITNUM",
      "type": "number"
    },
    {
      "name": "PARAMTYP",
      "type": "string"
    },
    {
      "name": "PARAM",
      "type": "string"
    },
    {
      "name": "PARAMCD",
      "type": "string"
    },
    {
      "name": "PARAMN",
      "type": "number"
    },
    {
      "name": "PARCAT1",
      "type": "string"
    },
    {
      "name": "AVAL",
      "type": "number"
    },
    {
      "name": "BASE",
      "type": "number"
    },
    {
      "name": "A1LO",
      "type": "number"
    },
    {
      "name": "A1HI",
      "type": "number"
    },
    {
      "name": "R2A1LO",
      "type": "number"
    },
    {
      "name": "R2A1HI",
      "type": "number"
    },
    {
      "name": "BR2A1LO",
      "type": "number"
    },
    {
      "name": "BR2A1HI",
      "type": "number"
    },
    {
      "name": "ABLFL",
      "type": "string"
    },
    {
      "name": "SHIFT1",
      "type": "string"
    },
    {
      "name": "SHIFT1N",
      "type": "number"
    },
    {
      "name": "CRIT1",
      "type": "string"
    },
    {
      "name": "CRIT1FL",
      "type": "string"
    },
    {
      "name": "CRIT1FN",
      "type": "number"
    }
  ],
  "rows": [
    {
      "STUDYID": "CDISCPILOT01",
      "SUBJID": "1015",
      "USUBJID": "01-701-1015",
      "TRTP": "Placebo",
      "TRTPN": 5.397605346934028e-79,
      "TRTA": "Placebo",
      "TRTAN": 5.397605346934028e-79,
      "TRTSDT": 19725.0,
      "TRTEDT": 19906.0,
      "AGE": 63.0,
      "AGEGR1": "<65",
      "AGEGR1N": 1.0,
      "RACE": "WHITE",
      "RACEN": 1.0,
      "SEX": "F",
      "COMP24FL": "Y",
      "DSRAEFL": "",
      "SAFFL": "Y",
      "AVISIT": "Baseline",
      "AVISITN": 5.397605346934028e-79,
      "ADY": -7.0,
      "ADT": 19718.0,
      "VISIT": "SCREENING 1",
      "VISITNUM": 1.0,
      "PARAMTYP": "",
      "PARAM": "Alanine Aminotransferase (U/L)",
      "PARAMCD": "ALT",
      "PARAMN": 1.0,
      "PARCAT1": "CHEM",
      "AVAL": 27.0,
      "BASE": 27.0,
      "A1LO": 6.0,
      "A1HI": 34.0,
      "R2A1LO": 4.5,
      "R2A1HI": 0.7941176470588235,
      "BR2A1LO": 4.5,
      "BR2A1HI": 0.7941176470588235,
      "ABLFL": "Y",
      "SHIFT1": "",
      "SHIFT1N": NaN,
      "CRIT1": "R2A1HI > 1.5",
      "CRIT1FL": "N",
      "CRIT1FN": 5.397605346934028e-79
    },
    {
      "STUDYID": "CDISCPILOT01",
      "SUBJID": "1015",
      "USUBJID": "01-701-1015",
      "TRTP": "Placebo",
      "TRTPN": 5.397605346934028e-79,
      "TRTA": "Placebo",
      "TRTAN": 5.397605346934028e-79,
      "TRTSDT": 19725.0,
      "TRTEDT": 19906.0,
      "AGE": 63.0,
      "AGEGR1": "<65",
      "AGEGR1N": 1.0,
      "RACE": "WHITE",
      "RACEN": 1.0,
      "SEX": "F",
      "COMP24FL": "Y",
      "DSRAEFL": "",
      "SAFFL": "Y",
      "AVISIT": "Baseline",
      "AVISITN": 5.397605346934028e-79,
      "ADY": -7.0,
      "ADT": 19718.0,
      "VISIT": "SCREENING 1",
      "VISITNUM": 1.0,
      "PARAMTYP": "",
      "PARAM": "Aspartate Aminotransferase (U/L)",
      "PARAMCD": "AST",
      "PARAMN": 2.0,
      "PARCAT1": "CHEM",
      "AVAL": 40.0,
      "BASE": 40.0,
      "A1LO": 9.0,
      "A1HI": 34.0,
      "R2A1LO": 4.444444444444445,
      "R2A1HI": 1.1764705882352942,
      "BR2A1LO": 4.444444444444445,
      "BR2A1HI": 1.1764705882352942,
      "ABLFL": "Y",
      "SHIFT1": "",
      "SHIFT1N": NaN,
      "CRIT1": "R2A1HI > 1.5",
      "CRIT1FL": "N",
      "CRIT1FN": 5.397605346934028e-79
    },
    {
      "STUDYID": "CDISCPILOT01",
      "SUBJID": "1015",
      "USUBJID": "01-701-1015",
      "TRTP": "Placebo",
      "TRTPN": 5.397605346934028e-79,
      "TRTA": "Placebo",
      "TRTAN": 5.397605346934028e-79,
      "TRTSDT": 19725.0,
      "TRTEDT": 19906.0,
      "AGE": 63.0,
      "AGEGR1": "<65",
      "AGEGR1N": 1.0,
      "RACE": "WHITE",
      "RACEN": 1.0,
      "SEX": "F",
      "COMP24FL": "Y",
      "DSRAEFL": "",
      "SAFFL": "Y",
      "AVISIT": "Baseline",
      "AVISITN": 5.397605346934028e-79,
      "ADY": -7.0,
      "ADT": 19718.0,
      "VISIT": "SCREENING 1",
      "VISITNUM": 1.0,
      "PARAMTYP": "",
      "PARAM": "Bilirubin (umol/L)",
      "PARAMCD": "BILI",
      "PARAMN": 3.0,
      "PARCAT1": "CHEM",
      "AVAL": 10.26,
      "BASE": 10.26,
      "A1LO": 3.0,
      "A1HI": 21.0,
      "R2A1LO": 3.42,
      "R2A1HI": 0.48857142857142855,
      "BR2A1LO": 3.42,
      "BR2A1HI": 0.48857142857142855,
      "ABLFL": "Y",
      "SHIFT1": "",
      "SHIFT1N": NaN,
      "CRIT1": "R2A1HI > 1.5",
      "CRIT1FL": "N",
      "CRIT1FN": 5.397605346934028e-79
    },
    {
      "STUDYID": "CDISCPILOT01",
      "SUBJID": "1015",
      "USUBJID": "01-701-1015",
      "TRTP": "Placebo",
      "TRTPN": 5.397605346934028e-79,
      "TRTA": "Placebo",
      "TRTAN": 5.397605346934028e-79,
      "TRTSDT": 19725.0,
      "TRTEDT": 19906.0,
      "AGE": 63.0,
      "AGEGR1": "<65",
      "AGEGR1N": 1.0,
      "RACE": "WHITE",
      "RACEN": 1.0,
      "SEX": "F",
      "COMP24FL": "Y",
      "DSRAEFL": "",
      "SAFFL": "Y",
      "AVISIT": "Baseline",
      "AVISITN": 5.397605346934028e-79,
      "ADY": NaN,
      "ADT": NaN,
      "VISIT": "",
      "VISITNUM": NaN,
      "PARAMTYP": "DERIVED",
      "PARAM": "Bilirubin 1.5 x ULN",
      "PARAMCD": "BILIHY",
      "PARAMN": 4.0,
      "PARCAT1": "HYLAW",
      "AVAL": 5.397605346934028e-79,
      "BASE": 5.397605346934028e-79,
      "A1LO": NaN,
      "A1HI": NaN,
      "R2A1LO": NaN,
      "R2A1HI": NaN,
      "BR2A1LO": NaN,
      "BR2A1HI": NaN,
      "ABLFL": "Y",
      "SHIFT1": "Normal to Normal",
      "SHIFT1N": 1.0,
      "CRIT1": "",
      "CRIT1FL": "",
      "CRIT1FN": NaN
    },
    {
      "STUDYID": "CDISCPILOT01",
      "SUBJID": "1015",
      "USUBJID": "01-701-1015",
      "TRTP": "Placebo",
      "TRTPN": 5.397605346934028e-79,
      "TRTA": "Placebo",
      "TRTAN": 5.397605346934028e-79,
      "TRTSDT": 19725.0,
      "TRTEDT": 19906.0,
      "AGE": 63.0,
      "AGEGR1": "<65",
      "AGEGR1N": 1.0,
      "RACE": "WHITE",
      "RACEN": 1.0,
      "SEX": "F",
      "COMP24FL": "Y",
      "DSRAEFL": "",
      "SAFFL": "Y",
      "AVISIT": "Baseline",
      "AVISITN": 5.397605346934028e-79,
      "ADY": NaN,
      "ADT": NaN,
      "VISIT": "",
      "VISITNUM": NaN,
      "PARAMTYP": "DERIVED",
      "PARAM": "Transaminase 1.5 x ULN",
      "PARAMCD": "TRANSHY",
      "PARAMN": 5.0,
      "PARCAT1": "HYLAW",
      "AVAL": 5.397605346934028e-79,
      "BASE": 5.397605346934028e-79,
      "A1LO": NaN,
      "A1HI": NaN,
      "R2A1LO": NaN,
      "R2A1HI": NaN,
      "BR2A1LO": NaN,
      "BR2A1HI": NaN,
      "ABLFL": "Y",
      "SHIFT1": "Normal to Normal",
      "SHIFT1N": 1.0,
      "CRIT1": "",
      "CRIT1FL": "",
      "CRIT1FN": NaN
    },
    {
      "STUDYID": "CDISCPILOT01",
      "SUBJID": "1015",
      "USUBJID": "01-701-1015",
      "TRTP": "Placebo",
      "TRTPN": 5.397605346934028e-79,
      "TRTA": "Placebo",
      "TRTAN": 5.397605346934028e-79,
      "TRTSDT": 19725.0,
      "TRTEDT": 19906.0,
      "AGE": 63.0,
      "AGEGR1": "<65",
      "AGEGR1N": 1.0,
      "RACE": "WHITE",
      "RACEN": 1.0,
      "SEX": "F",
      "COMP24FL": "Y",
      "DSRAEFL": "",
      "SAFFL": "Y",
      "AVISIT": "Baseline",
      "AVISITN": 5.397605346934028e-79,
      "ADY": NaN,
      "ADT": NaN,
      "VISIT": "",
      "VISITNUM": NaN,
      "PARAMTYP": "DERIVED",
      "PARAM": "Total Bili 1.5 x ULN and Transaminase 1.5 x ULN",
      "PARAMCD": "HYLAW",
      "PARAMN": 6.0,
      "PARCAT1": "HYLAW",
      "AVAL": 5.397605346934028e-79,
      "BASE": 5.397605346934028e-79,
      "A1LO": NaN,
      "A1HI": NaN,
      "R2A1LO": NaN,
      "R2A1HI": NaN,
      "BR2A1LO": NaN,
      "BR2A1HI": NaN,
      "ABLFL": "Y",
      "SHIFT1": "Normal to Normal",
      "SHIFT1N": 1.0,
      "CRIT1": "",
      "CRIT1FL": "",
      "CRIT1FN": NaN
    },
    {
      "STUDYID": "CDISCPILOT01",
      "SUBJID": "1015",
      "USUBJID": "01-701-1015",
      "TRTP": "Placebo",
      "TRTPN": 5.397605346934028e-79,
      "TRTA": "Placebo",
      "TRTAN": 5.397605346934028e-79,
      "TRTSDT": 19725.0,
      "TRTEDT": 19906.0,
      "AGE": 63.0,
      "AGEGR1": "<65",
      "AGEGR1N": 1.0,
      "RACE": "WHITE",
      "RACEN": 1.0,
      "SEX": "F",
      "COMP24FL": "Y",
      "DSRAEFL": "",
      "SAFFL": "Y",
      "AVISIT": "Week 2",
      "AVISITN": 2.0,
      "ADY": 15.0,
      "ADT": 19739.0,
      "VISIT": "WEEK 2",
      "VISITNUM": 4.0,
      "PARAMTYP": "",
      "PARAM": "Alanine Aminotransferase (U/L)",
      "PARAMCD": "ALT",
      "PARAMN": 1.0,
      "PARCAT1": "CHEM",
      "AVAL": 41.0,
      "BASE": 27.0,
      "A1LO": 6.0,
      "A1HI": 34.0,
      "R2A1LO": 6.833333333333333,
      "R2A1HI": 1.2058823529411764,
      "BR2A1LO": 4.5,
      "BR2A1HI": 0.7941176470588235,
      "ABLFL": "",
      "SHIFT1": "",
      "SHIFT1N": NaN,
      "CRIT1": "R2A1HI > 1.5",
      "CRIT1FL": "N",
      "CRIT1FN": 5.397605346934028e-79
    },
    {
      "STUDYID": "CDISCPILOT01",
      "SUBJID": "1015",
      "USUBJID": "01-701-1015",
      "TRTP": "Placebo",
      "TRTPN": 5.397605346934028e-79,
      "TRTA": "Placebo",
      "TRTAN": 5.397605346934028e-79,
      "TRTSDT": 19725.0,
      "TRTEDT": 19906.0,
      "AGE": 63.0,
      "AGEGR1": "<65",
      "AGEGR1N": 1.0,
      "RACE": "WHITE",
      "RACEN": 1.0,
      "SEX": "F",
      "COMP24FL": "Y",
      "DSRAEFL": "",
      "SAFFL": "Y",
      "AVISIT": "Week 2",
      "AVISITN": 2.0,
      "ADY": 15.0,
      "ADT": 19739.0,
      "VISIT": "WEEK 2",
      "VISITNUM": 4.0,
      "PARAMTYP": "",
      "PARAM": "Aspartate Aminotransferase (U/L)",
      "PARAMCD": "AST",
      "PARAMN": 2.0,
      "PARCAT1": "CHEM",
      "AVAL": 33.0,
      "BASE": 40.0,
      "A1LO": 9.0,
      "A1HI": 34.0,
      "R2A1LO": 3.6666666666666665,
      "R2A1HI": 0.9705882352941176,
      "BR2A1LO": 4.444444444444445,
      "BR2A1HI": 1.1764705882352942,
      "ABLFL": "",
      "SHIFT1": "",
      "SHIFT1N": NaN,
      "CRIT1": "R2A1HI > 1.5",
      "CRIT1FL": "N",
      "CRIT1FN": 5.397605346934028e-79
    },
    {
      "STUDYID": "CDISCPILOT01",
      "SUBJID": "1015",
      "USUBJID": "01-701-1015",
      "TRTP": "Placebo",
      "TRTPN": 5.397605346934028e-79,
      "TRTA": "Placebo",
      "TRTAN": 5.397605346934028e-79,
      "TRTSDT": 19725.0,
      "TRTEDT": 19906.0,
      "AGE": 63.0,
      "AGEGR1": "<65",
      "AGEGR1N": 1.0,
      "RACE": "WHITE",
      "RACEN": 1.0,
      "SEX": "F",
      "COMP24FL": "Y",
      "DSRAEFL": "",
      "SAFFL": "Y",
      "AVISIT": "Week 2",
      "AVISITN": 2.0,
      "ADY": 15.0,
      "ADT": 19739.0,
      "VISIT": "WEEK 2",
      "VISITNUM": 4.0,
      "PARAMTYP": "",
      "PARAM": "Bilirubin (umol/L)",
      "PARAMCD": "BILI",
      "PARAMN": 3.0,
      "PARCAT1": "CHEM",
      "AVAL": 8.549999999999999,
      "BASE": 10.26,
      "A1LO": 3.0,
      "A1HI": 21.0,
      "R2A1LO": 2.8499999999999996,
      "R2A1HI": 0.4071428571428571,
      "BR2A1LO": 3.42,
      "BR2A1HI": 0.48857142857142855,
      "ABLFL": "",
      "SHIFT1": "",
      "SHIFT1N": NaN,
      "CRIT1": "R2A1HI > 1.5",
      "CRIT1FL": "N",
      "CRIT1FN": 5.397605346934028e-79
    },
    {
      "STUDYID": "CDISCPILOT01",
      "SUBJID": "1015",
      "USUBJID": "01-701-1015",
      "TRTP": "Placebo",
      "TRTPN": 5.397605346934028e-79,
      "TRTA": "Placebo",
      "TRTAN": 5.397605346934028e-79,
      "TRTSDT": 19725.0,
      "TRTEDT": 19906.0,
      "AGE": 63.0,
      "AGEGR1": "<65",
      "AGEGR1N": 1.0,
      "RACE": "WHITE",
      "RACEN": 1.0,
      "SEX": "F",
      "COMP24FL": "Y",
      "DSRAEFL": "",
      "SAFFL": "Y",
      "AVISIT": "Week 2",
      "AVISITN": 2.0,
      "ADY": NaN,
      "ADT": NaN,
      "VISIT": "",
      "VISITNUM": NaN,
      "PARAMTYP": "DERIVED",
      "PARAM": "Bilirubin 1.5 x ULN",
      "PARAMCD": "BILIHY",
      "PARAMN": 4.0,
      "PARCAT1": "HYLAW",
      "AVAL": 5.397605346934028e-79,
      "BASE": 5.397605346934028e-79,
      "A1LO": NaN,
      "A1HI": NaN,
      "R2A1LO": NaN,
      "R2A1HI": NaN,
      "BR2A1LO": NaN,
      "BR2A1HI": NaN,
      "ABLFL": "",
      "SHIFT1": "Normal to Normal",
      "SHIFT1N": 1.0,
      "CRIT1": "",
      "CRIT1FL": "",
      "CRIT1FN": NaN
    },
    {
      "STUDYID": "CDISCPILOT01",
      "SUBJID": "1015",
      "USUBJID": "01-701-1015",
      "TRTP": "Placebo",
      "TRTPN": 5.397605346934028e-79,
      "TRTA": "Placebo",
      "TRTAN": 5.397605346934028e-79,
      "TRTSDT": 19725.0,
      "TRTEDT": 19906.0,
      "AGE": 63.0,
      "AGEGR1": "<65",
      "AGEGR1N": 1.0,
      "RACE": "WHITE",
      "RACEN": 1.0,
      "SEX": "F",
      "COMP24FL": "Y",
      "DSRAEFL": "",
      "SAFFL": "Y",
      "AVISIT": "Week 2",
      "AVISITN": 2.0,
      "ADY": NaN,
      "ADT": NaN,
      "VISIT": "",
      "VISITNUM": NaN,
      "PARAMTYP": "DERIVED",
      "PARAM": "Transaminase 1.5 x ULN",
      "PARAMCD": "TRANSHY",
      "PARAMN": 5.0,
      "PARCAT1": "HYLAW",
      "AVAL": 5.397605346934028e-79,
      "BASE": 5.397605346934028e-79,
      "A1LO": NaN,
      "A1HI": NaN,
      "R2A1LO": NaN,
      "R2A1HI": NaN,
      "BR2A1LO": NaN,
      "BR2A1HI": NaN,
      "ABLFL": "",
      "SHIFT1": "Normal to Normal",
      "SHIFT1N": 1.0,
      "CRIT1": "",
      "CRIT1FL": "",
      "CRIT1FN": NaN
    },
    {
      "STUDYID": "CDISCPILOT01",
      "SUBJID": "1015",
      "USUBJID": "01-701-1015",
      "TRTP": "Placebo",
      "TRTPN": 5.397605346934028e-79,
      "TRTA": "Placebo",
      "TRTAN": 5.397605346934028e-79,
      "TRTSDT": 19725.0,
      "TRTEDT": 19906.0,
      "AGE": 63.0,
      "AGEGR1": "<65",
      "AGEGR1N": 1.0,
      "RACE": "WHITE",
      "RACEN": 1.0,
      "SEX": "F",
      "COMP24FL": "Y",
      "DSRAEFL": "",
      "SAFFL": "Y",
      "AVISIT": "Week 2",
      "AVISITN": 2.0,
      "ADY": NaN,
      "ADT": NaN,
      "VISIT": "",
      "VISITNUM": NaN,
      "PARAMTYP": "DERIVED",
      "PARAM": "Total Bili 1.5 x ULN and Transaminase 1.5 x ULN",
      "PARAMCD": "HYLAW",
      "PARAMN": 6.0,
      "PARCAT1": "HYLAW",
      "AVAL": 5.397605346934028e-79,
      "BASE": 5.397605346934028e-79,
      "A1LO": NaN,
      "A1HI": NaN,
      "R2A1LO": NaN,
      "R2A1HI": NaN,
      "BR2A1LO": NaN,
      "BR2A1HI": NaN,
      "ABLFL": "",
      "SHIFT1": "Normal to Normal",
      "SHIFT1N": 1.0,
      "CRIT1": "",
      "CRIT1FL": "",
      "CRIT1FN": NaN
    },
    {
      "STUDYID": "CDISCPILOT01",
      "SUBJID": "1015",
      "USUBJID": "01-701-1015",
      "TRTP": "Placebo",
      "TRTPN": 5.397605346934028e-79,
      "TRTA": "Placebo",
      "TRTAN": 5.397605346934028e-79,
      "TRTSDT": 19725.0,
      "TRTEDT": 19906.0,
      "AGE": 63.0,
      "AGEGR1": "<65",
      "AGEGR1N": 1.0,
      "RACE": "WHITE",
      "RACEN": 1.0,
      "SEX": "F",
      "COMP24FL": "Y",
      "DSRAEFL": "",
      "SAFFL": "Y",
      "AVISIT": "Week 4",
      "AVISITN": 4.0,
      "ADY": 29.0,
      "ADT": 19753.0,
      "VISIT": "WEEK 4",
      "VISITNUM": 5.0,
      "PARAMTYP": "",
      "PARAM": "Alanine Aminotransferase (U/L)",
      "PARAMCD": "ALT",
      "PARAMN": 1.0,
      "PARCAT1": "CHEM",
      "AVAL": 18.0,
      "BASE": 27.0,
      "A1LO": 6.0,
      "A1HI": 34.0,
      "R2A1LO": 3.0,
      "R2A1HI": 0.5294117647058824,
      "BR2A1LO": 4.5,
      "BR2A1HI": 0.7941176470588235,
      "ABLFL": "",
      "SHIFT1": "",
      "SHIFT1N": NaN,
      "CRIT1": "R2A1HI > 1.5",
      "CRIT1FL": "N",
      "CRIT1FN": 5.397605346934028e-79
    },
    {
      "STUDYID": "CDISCPILOT01",
      "SUBJID": "1015",
      "USUBJID": "01-701-1015",
      "TRTP": "Placebo",
      "TRTPN": 5.397605346934028e-79,
      "TRTA": "Placebo",
      "TRTAN": 5.397605346934028e-79,
      "TRTSDT": 19725.0,
      "TRTEDT": 19906.0,
      "AGE": 63.0,
      "AGEGR1": "<65",
      "AGEGR1N": 1.0,
      "RACE": "WHITE",
      "RACEN": 1.0,
      "SEX": "F",
      "COMP24FL": "Y",
      "DSRAEFL": "",
      "SAFFL": "Y",
      "AVISIT": "Week 4",
      "AVISITN": 4.0,
      "ADY": 29.0,
      "ADT": 19753.0,
      "VISIT": "WEEK 4",
      "VISITNUM": 5.0,
      "PARAMTYP": "",
      "PARAM": "Aspartate Aminotransferase (U/L)",
      "PARAMCD": "AST",
      "PARAMN": 2.0,
      "PARCAT1": "CHEM",
      "AVAL": 21.0,
      "BASE": 40.0,
      "A1LO": 9.0,
      "A1HI": 34.0,
      "R2A1LO": 2.3333333333333335,
      "R2A1HI": 0.6176470588235294,
      "BR2A1LO": 4.444444444444445,
      "BR2A1HI": 1.1764705882352942,
      "ABLFL": "",
      "SHIFT1": "",
      "SHIFT1N": NaN,
      "CRIT1": "R2A1HI > 1.5",
      "CRIT1FL": "N",
      "CRIT1FN": 5.397605346934028e-79
    },
    {
      "STUDYID": "CDISCPILOT01",
      "SUBJID": "1015",
      "USUBJID": "01-701-1015",
      "TRTP": "Placebo",
      "TRTPN": 5.397605346934028e-79,
      "TRTA": "Placebo",
      "TRTAN": 5.397605346934028e-79,
      "TRTSDT": 19725.0,
      "TRTEDT": 19906.0,
      "AGE": 63.0,
      "AGEGR1": "<65",
      "AGEGR1N": 1.0,
      "RACE": "WHITE",
      "RACEN": 1.0,
      "SEX": "F",
      "COMP24FL": "Y",
      "DSRAEFL": "",
      "SAFFL": "Y",
      "AVISIT": "Week 4",
      "AVISITN": 4.0,
      "ADY": 29.0,
      "ADT": 19753.0,
      "VISIT": "WEEK 4",
      "VISITNUM": 5.0,
      "PARAMTYP": "",
      "PARAM": "Bilirubin (umol/L)",
      "PARAMCD": "BILI",
      "PARAMN": 3.0,
      "PARCAT1": "CHEM",
      "AVAL": 6.84,
      "BASE": 10.26,
      "A1LO": 3.0,
      "A1HI": 21.0,
      "R2A1LO": 2.28,
      "R2A1HI": 0.32571428571428573,
      "BR2A1LO": 3.42,
      "BR2A1HI": 0.48857142857142855,
      "ABLFL": "",
      "SHIFT1": "",
      "SHIFT1N": NaN,
      "CRIT1": "R2A1HI > 1.5",
      "CRIT1FL": "N",
      "CRIT1FN": 5.397605346934028e-79
    },
    {
      "STUDYID": "CDISCPILOT01",
      "SUBJID": "1015",
      "USUBJID": "01-701-1015",
      "TRTP": "Placebo",
      "TRTPN": 5.397605346934028e-79,
      "TRTA": "Placebo",
      "TRTAN": 5.397605346934028e-79,
      "TRTSDT": 19725.0,
      "TRTEDT": 19906.0,
      "AGE": 63.0,
      "AGEGR1": "<65",
      "AGEGR1N": 1.0,
      "RACE": "WHITE",
      "RACEN": 1.0,
      "SEX": "F",
      "COMP24FL": "Y",
      "DSRAEFL": "",
      "SAFFL": "Y",
      "AVISIT": "Week 4",
      "AVISITN": 4.0,
      "ADY": NaN,
      "ADT": NaN,
      "VISIT": "",
      "VISITNUM": NaN,
      "PARAMTYP": "DERIVED",
      "PARAM": "Bilirubin 1.5 x ULN",
      "PARAMCD": "BILIHY",
      "PARAMN": 4.0,
      "PARCAT1": "HYLAW",
      "AVAL": 5.397605346934028e-79,
      "BASE": 5.397605346934028e-79,
      "A1LO": NaN,
      "A1HI": NaN,
      "R2A1LO": NaN,
      "R2A1HI": NaN,
      "BR2A1LO": NaN,
      "BR2A1HI": NaN,
      "ABLFL": "",
      "SHIFT1": "Normal to Normal",
      "SHIFT1N": 1.0,
      "CRIT1": "",
      "CRIT1FL": "",
      "CRIT1FN": NaN
    },
    {
      "STUDYID": "CDISCPILOT01",
      "SUBJID": "1015",
      "USUBJID": "01-701-1015",
      "TRTP": "Placebo",
      "TRTPN": 5.397605346934028e-79,
      "TRTA": "Placebo",
      "TRTAN": 5.397605346934028e-79,
      "TRTSDT": 19725.0,
      "TRTEDT": 19906.0,
      "AGE": 63.0,
      "AGEGR1": "<65",
      "AGEGR1N": 1.0,
      "RACE": "WHITE",
      "RACEN": 1.0,
      "SEX": "F",
      "COMP24FL": "Y",
      "DSRAEFL": "",
      "SAFFL": "Y",
      "AVISIT": "Week 4",
      "AVISITN": 4.0,
      "ADY": NaN,
      "ADT": NaN,
      "VISIT": "",
      "VISITNUM": NaN,
      "PARAMTYP": "DERIVED",
      "PARAM": "Transaminase 1.5 x ULN",
      "PARAMCD": "TRANSHY",
      "PARAMN": 5.0,
      "PARCAT1": "HYLAW",
      "AVAL": 5.397605346934028e-79,
      "BASE": 5.397605346934028e-79,
      "A1LO": NaN,
      "A1HI": NaN,
      "R2A1LO": NaN,
      "R2A1HI": NaN,
      "BR2A1LO": NaN,
      "BR2A1HI": NaN,
      "ABLFL": "",
      "SHIFT1": "Normal to Normal",
      "SHIFT1N": 1.0,
      "CRIT1": "",
      "CRIT1FL": "",
      "CRIT1FN": NaN
    },
    {
      "STUDYID": "CDISCPILOT01",
      "SUBJID": "1015",
      "USUBJID": "01-701-1015",
      "TRTP": "Placebo",
      "TRTPN": 5.397605346934028e-79,
      "TRTA": "Placebo",
      "TRTAN": 5.397605346934028e-79,
      "TRTSDT": 19725.0,
      "TRTEDT": 19906.0,
      "AGE": 63.0,
      "AGEGR1": "<65",
      "AGEGR1N": 1.0,
      "RACE": "WHITE",
      "RACEN": 1.0,
      "SEX": "F",
      "COMP24FL": "Y",
      "DSRAEFL": "",
      "SAFFL": "Y",
      "AVISIT": "Week 4",
      "AVISITN": 4.0,
      "ADY": NaN,
      "ADT": NaN,
      "VISIT": "",
      "VISITNUM": NaN,
      "PARAMTYP": "DERIVED",
      "PARAM": "Total Bili 1.5 x ULN and Transaminase 1.5 x ULN",
      "PARAMCD": "HYLAW",
      "PARAMN": 6.0,
      "PARCAT1": "HYLAW",
      "AVAL": 5.397605346934028e-79,
      "BASE": 5.397605346934028e-79,
      "A1LO": NaN,
      "A1HI": NaN,
      "R2A1LO": NaN,
      "R2A1HI": NaN,
      "BR2A1LO": NaN,
      "BR2A1HI": NaN,
      "ABLFL": "",
      "SHIFT1": "Normal to Normal",
      "SHIFT1N": 1.0,
      "CRIT1": "",
      "CRIT1FL": "",
      "CRIT1FN": NaN
    },
    {
      "STUDYID": "CDISCPILOT01",
      "SUBJID": "1015",
      "USUBJID": "01-701-1015",
      "TRTP": "Placebo",
      "TRTPN": 5.397605346934028e-79,
      "TRTA": "Placebo",
      "TRTAN": 5.397605346934028e-79,
      "TRTSDT": 19725.0,
      "TRTEDT": 19906.0,
      "AGE": 63.0,
      "AGEGR1": "<65",
      "AGEGR1N": 1.0,
      "RACE": "WHITE",
      "RACEN": 1.0,
      "SEX": "F",
      "COMP24FL": "Y",
      "DSRAEFL": "",
      "SAFFL": "Y",
      "AVISIT": "Week 6",
      "AVISITN": 6.0,
      "ADY": 42.0,
      "ADT": 19766.0,
      "VISIT": "WEEK 6",
      "VISITNUM": 7.0,
      "PARAMTYP": "",
      "PARAM": "Alanine Aminotransferase (U/L)",
      "PARAMCD": "ALT",
      "PARAMN": 1.0,
      "PARCAT1": "CHEM",
      "AVAL": 26.0,
      "BASE": 27.0,
      "A1LO": 6.0,
      "A1HI": 34.0,
      "R2A1LO": 4.333333333333333,
      "R2A1HI": 0.7647058823529411,
      "BR2A1LO": 4.5,
      "BR2A1HI": 0.7941176470588235,
      "ABLFL": "",
      "SHIFT1": "",
      "SHIFT1N": NaN,
      "CRIT1": "R2A1HI > 1.5",
      "CRIT1FL": "N",
      "CRIT1FN": 5.397605346934028e-79
    },
    {
      "STUDYID": "CDISCPILOT01",
      "SUBJID": "1015",
      "USUBJID": "01-701-1015",
      "TRTP": "Placebo",
      "TRTPN": 5.397605346934028e-79,
      "TRTA": "Placebo",
      "TRTAN": 5.397605346934028e-79,
      "TRTSDT": 19725.0,
      "TRTEDT": 19906.0,
      "AGE": 63.0,
      "AGEGR1": "<65",
      "AGEGR1N": 1.0,
      "RACE": "WHITE",
      "RACEN": 1.0,
      "SEX": "F",
      "COMP24FL": "Y",
      "DSRAEFL": "",
      "SAFFL": "Y",
      "AVISIT": "Week 6",
      "AVISITN": 6.0,
      "ADY": 42.0,
      "ADT": 19766.0,
      "VISIT": "WEEK 6",
      "VISITNUM": 7.0,
      "PARAMTYP": "",
      "PARAM": "Aspartate Aminotransferase (U/L)",
      "PARAMCD": "AST",
      "PARAMN": 2.0,
      "PARCAT1": "CHEM",
      "AVAL": 26.0,
      "BASE": 40.0,
      "A1LO": 9.0,
      "A1HI": 34.0,
      "R2A1LO": 2.888888888888889,
      "R2A1HI": 0.7647058823529411,
      "BR2A1LO": 4.444444444444445,
      "BR2A1HI": 1.1764705882352942,
      "ABLFL": "",
      "SHIFT1": "",
      "SHIFT1N": NaN,
      "CRIT1": "R2A1HI > 1.5",
      "CRIT1FL": "N",
      "CRIT1FN": 5.397605346934028e-79
    },
    {
      "STUDYID": "CDISCPILOT01",
      "SUBJID": "1015",
      "USUBJID": "01-701-1015",
      "TRTP": "Placebo",
      "TRTPN": 5.397605346934028e-79,
      "TRTA": "Placebo",
      "TRTAN": 5.397605346934028e-79,
      "TRTSDT": 19725.0,
      "TRTEDT": 19906.0,
      "AGE": 63.0,
      "AGEGR1": "<65",
      "AGEGR1N": 1.0,
      "RACE": "WHITE",
      "RACEN": 1.0,
      "SEX": "F",
      "COMP24FL": "Y",
      "DSRAEFL": "",
      "SAFFL": "Y",
      "AVISIT": "Week 6",
      "AVISITN": 6.0,
      "ADY": 42.0,
      "ADT": 19766.0,
      "VISIT": "WEEK 6",
      "VISITNUM": 7.0,
      "PARAMTYP": "",
      "PARAM": "Bilirubin (umol/L)",
      "PARAMCD": "BILI",
      "PARAMN": 3.0,
      "PARCAT1": "CHEM",
      "AVAL": 5.13,
      "BASE": 10.26,
      "A1LO": 3.0,
      "A1HI": 21.0,
      "R2A1LO": 1.71,
      "R2A1HI": 0.24428571428571427,
      "BR2A1LO": 3.42,
      "BR2A1HI": 0.48857142857142855,
      "ABLFL": "",
      "SHIFT1": "",
      "SHIFT1N": NaN,
      "CRIT1": "R2A1HI > 1.5",
      "CRIT1FL": "N",
      "CRIT1FN": 5.397605346934028e-79
    },
    {
      "STUDYID": "CDISCPILOT01",
      "SUBJID": "1015",
      "USUBJID": "01-701-1015",
      "TRTP": "Placebo",
      "TRTPN": 5.397605346934028e-79,
      "TRTA": "Placebo",
      "TRTAN": 5.397605346934028e-79,
      "TRTSDT": 19725.0,
      "TRTEDT": 19906.0,
      "AGE": 63.0,
      "AGEGR1": "<65",
      "AGEGR1N": 1.0,
      "RACE": "WHITE",
      "RACEN": 1.0,
      "SEX": "F",
      "COMP24FL": "Y",
      "DSRAEFL": "",
      "SAFFL": "Y",
      "AVISIT": "Week 6",
      "AVISITN": 6.0,
      "ADY": NaN,
      "ADT": NaN,
      "VISIT": "",
      "VISITNUM": NaN,
      "PARAMTYP": "DERIVED",
      "PARAM": "Bilirubin 1.5 x ULN",
      "PARAMCD": "BILIHY",
      "PARAMN": 4.0,
      "PARCAT1": "HYLAW",
      "AVAL": 5.397605346934028e-79,
      "BASE": 5.397605346934028e-79,
      "A1LO": NaN,
      "A1HI": NaN,
      "R2A1LO": NaN,
      "R2A1HI": NaN,
      "BR2A1LO": NaN,
      "BR2A1HI": NaN,
      "ABLFL": "",
      "SHIFT1": "Normal to Normal",
      "SHIFT1N": 1.0,
      "CRIT1": "",
      "CRIT1FL": "",
      "CRIT1FN": NaN
    },
    {
      "STUDYID": "CDISCPILOT01",
      "SUBJID": "1015",
      "USUBJID": "01-701-1015",
      "TRTP": "Placebo",
      "TRTPN": 5.397605346934028e-79,
      "TRTA": "Placebo",
      "TRTAN": 5.397605346934028e-79,
      "TRTSDT": 19725.0,
      "TRTEDT": 19906.0,
      "AGE": 63.0,
      "AGEGR1": "<65",
      "AGEGR1N": 1.0,
      "RACE": "WHITE",
      "RACEN": 1.0,
      "SEX": "F",
      "COMP24FL": "Y",
      "DSRAEFL": "",
      "SAFFL": "Y",
      "AVISIT": "Week 6",
      "AVISITN": 6.0,
      "ADY": NaN,
      "ADT": NaN,
      "VISIT": "",
      "VISITNUM": NaN,
      "PARAMTYP": "DERIVED",
      "PARAM": "Transaminase 1.5 x ULN",
      "PARAMCD": "TRANSHY",
      "PARAMN": 5.0,
      "PARCAT1": "HYLAW",
      "AVAL": 5.397605346934028e-79,
      "BASE": 5.397605346934028e-79,
      "A1LO": NaN,
      "A1HI": NaN,
      "R2A1LO": NaN,
      "R2A1HI": NaN,
      "BR2A1LO": NaN,
      "BR2A1HI": NaN,
      "ABLFL": "",
      "SHIFT1": "Normal to Normal",
      "SHIFT1N": 1.0,
      "CRIT1": "",
      "CRIT1FL": "",
      "CRIT1FN": NaN
    },
    {
      "STUDYID": "CDISCPILOT01",
      "SUBJID": "1015",
      "USUBJID": "01-701-1015",
      "TRTP": "Placebo",
      "TRTPN": 5.397605346934028e-79,
      "TRTA": "Placebo",
      "TRTAN": 5.397605346934028e-79,
      "TRTSDT": 19725.0,
      "TRTEDT": 19906.0,
      "AGE": 63.0,
      "AGEGR1": "<65",
      "AGEGR1N": 1.0,
      "RACE": "WHITE",
      "RACEN": 1.0,
      "SEX": "F",
      "COMP24FL": "Y",
      "DSRAEFL": "",
      "SAFFL": "Y",
      "AVISIT": "Week 6",
      "AVISITN": 6.0,
      "ADY": NaN,
      "ADT": NaN,
      "VISIT": "",
      "VISITNUM": NaN,
      "PARAMTYP": "DERIVED",
      "PARAM": "Total Bili 1.5 x ULN and Transaminase 1.5 x ULN",
      "PARAMCD": "HYLAW",
      "PARAMN": 6.0,
      "PARCAT1": "HYLAW",
      "AVAL": 5.397605346934028e-79,
      "BASE": 5.397605346934028e-79,
      "A1LO": NaN,
      "A1HI": NaN,
      "R2A1LO": NaN,
      "R2A1HI": NaN,
      "BR2A1LO": NaN,
      "BR2A1HI": NaN,
      "ABLFL": "",
      "SHIFT1": "Normal to Normal",
      "SHIFT1N": 1.0,
      "CRIT1": "",
      "CRIT1FL": "",
      "CRIT1FN": NaN
    },
    {
      "STUDYID": "CDISCPILOT01",
      "SUBJID": "1015",
      "USUBJID": "01-701-1015",
      "TRTP": "Placebo",
      "TRTPN": 5.397605346934028e-79,
      "TRTA": "Placebo",
      "TRTAN": 5.397605346934028e-79,
      "TRTSDT": 19725.0,
      "TRTEDT": 19906.0,
      "AGE": 63.0,
      "AGEGR1": "<65",
      "AGEGR1N": 1.0,
      "RACE": "WHITE",
      "RACEN": 1.0,
      "SEX": "F",
      "COMP24FL": "Y",
      "DSRAEFL": "",
      "SAFFL": "Y",
      "AVISIT": "Week 8",
      "AVISITN": 8.0,
      "ADY": 63.0,
      "ADT": 19787.0,
      "VISIT": "WEEK 8",
      "VISITNUM": 8.0,
      "PARAMTYP": "",
      "PARAM": "Alanine Aminotransferase (U/L)",
      "PARAMCD": "ALT",
      "PARAMN": 1.0,
      "PARCAT1": "CHEM",
      "AVAL": 22.0,
      "BASE": 27.0,
      "A1LO": 6.0,
      "A1HI": 34.0,
      "R2A1LO": 3.6666666666666665,
      "R2A1HI": 0.6470588235294118,
      "BR2A1LO": 4.5,
      "BR2A1HI": 0.7941176470588235,
      "ABLFL": "",
      "SHIFT1": "",
      "SHIFT1N": NaN,
      "CRIT1": "R2A1HI > 1.5",
      "CRIT1FL": "N",
      "CRIT1FN": 5.397605346934028e-79
    },
    {
      "STUDYID": "CDISCPILOT01",
      "SUBJID": "1015",
      "USUBJID": "01-701-1015",
      "TRTP": "Placebo",
      "TRTPN": 5.397605346934028e-79,
      "TRTA": "Placebo",
      "TRTAN": 5.397605346934028e-79,
      "TRTSDT": 19725.0,
      "TRTEDT": 19906.0,
      "AGE": 63.0,
      "AGEGR1": "<65",
      "AGEGR1N": 1.0,
      "RACE": "WHITE",
      "RACEN": 1.0,
      "SEX": "F",
      "COMP24FL": "Y",
      "DSRAEFL": "",
      "SAFFL": "Y",
      "AVISIT": "Week 8",
      "AVISITN": 8.0,
      "ADY": 63.0,
      "ADT": 19787.0,
      "VISIT": "WEEK 8",
      "VISITNUM": 8.0,
      "PARAMTYP": "",
      "PARAM": "Aspartate Aminotransferase (U/L)",
      "PARAMCD": "AST",
      "PARAMN": 2.0,
      "PARCAT1": "CHEM",
      "AVAL": 21.0,
      "BASE": 40.0,
      "A1LO": 9.0,
      "A1HI": 34.0,
      "R2A1LO": 2.3333333333333335,
      "R2A1HI": 0.6176470588235294,
      "BR2A1LO": 4.444444444444445,
      "BR2A1HI": 1.1764705882352942,
      "ABLFL": "",
      "SHIFT1": "",
      "SHIFT1N": NaN,
      "CRIT1": "R2A1HI > 1.5",
      "CRIT1FL": "N",
      "CRIT1FN": 5.397605346934028e-79
    },
    {
      "STUDYID": "CDISCPILOT01",
      "SUBJID": "1015",
      "USUBJID": "01-701-1015",
      "TRTP": "Placebo",
      "TRTPN": 5.397605346934028e-79,
      "TRTA": "Placebo",
      "TRTAN": 5.397605346934028e-79,
      "TRTSDT": 19725.0,
      "TRTEDT": 19906.0,
      "AGE": 63.0,
      "AGEGR1": "<65",
      "AGEGR1N": 1.0,
      "RACE": "WHITE",
      "RACEN": 1.0,
      "SEX": "F",
      "COMP24FL": "Y",
      "DSRAEFL": "",
      "SAFFL": "Y",
      "AVISIT": "Week 8",
      "AVISITN": 8.0,
      "ADY": 63.0,
      "ADT": 19787.0,
      "VISIT": "WEEK 8",
      "VISITNUM": 8.0,
      "PARAMTYP": "",
      "PARAM": "Bilirubin (umol/L)",
      "PARAMCD": "BILI",
      "PARAMN": 3.0,
      "PARCAT1": "CHEM",
      "AVAL": 8.549999999999999,
      "BASE": 10.26,
      "A1LO": 3.0,
      "A1HI": 21.0,
      "R2A1LO": 2.8499999999999996,
      "R2A1HI": 0.4071428571428571,
      "BR2A1LO": 3.42,
      "BR2A1HI": 0.48857142857142855,
      "ABLFL": "",
      "SHIFT1": "",
      "SHIFT1N": NaN,
      "CRIT1": "R2A1HI > 1.5",
      "CRIT1FL": "N",
      "CRIT1FN": 5.397605346934028e-79
    },
    {
      "STUDYID": "CDISCPILOT01",
      "SUBJID": "1015",
      "USUBJID": "01-701-1015",
      "TRTP": "Placebo",
      "TRTPN": 5.397605346934028e-79,
      "TRTA": "Placebo",
      "TRTAN": 5.397605346934028e-79,
      "TRTSDT": 19725.0,
      "TRTEDT": 19906.0,
      "AGE": 63.0,
      "AGEGR1": "<65",
      "AGEGR1N": 1.0,
      "RACE": "WHITE",
      "RACEN": 1.0,
      "SEX": "F",
      "COMP24FL": "Y",
      "DSRAEFL": "",
      "SAFFL": "Y",
      "AVISIT": "Week 8",
      "AVISITN": 8.0,
      "ADY": NaN,
      "ADT": NaN,
      "VISIT": "",
      "VISITNUM": NaN,
      "PARAMTYP": "DERIVED",
      "PARAM": "Bilirubin 1.5 x ULN",
      "PARAMCD": "BILIHY",
      "PARAMN": 4.0,
      "PARCAT1": "HYLAW",
      "AVAL": 5.397605346934028e-79,
      "BASE": 5.397605346934028e-79,
      "A1LO": NaN,
      "A1HI": NaN,
      "R2A1LO": NaN,
      "R2A1HI": NaN,
      "BR2A1LO": NaN,
      "BR2A1HI": NaN,
      "ABLFL": "",
      "SHIFT1": "Normal to Normal",
      "SHIFT1N": 1.0,
      "CRIT1": "",
      "CRIT1FL": "",
      "CRIT1FN": NaN
    },
    {
      "STUDYID": "CDISCPILOT01",
      "SUBJID": "1015",
      "USUBJID": "01-701-1015",
      "TRTP": "Placebo",
      "TRTPN": 5.397605346934028e-79,
      "TRTA": "Placebo",
      "TRTAN": 5.397605346934028e-79,
      "TRTSDT": 19725.0,
      "TRTEDT": 19906.0,
      "AGE": 63.0,
      "AGEGR1": "<65",
      "AGEGR1N": 1.0,
      "RACE": "WHITE",
      "RACEN": 1.0,
      "SEX": "F",
      "COMP24FL": "Y",
      "DSRAEFL": "",
      "SAFFL": "Y",
      "AVISIT": "Week 8",
      "AVISITN": 8.0,
      "ADY": NaN,
      "ADT": NaN,
      "VISIT": "",
      "VISITNUM": NaN,
      "PARAMTYP": "DERIVED",
      "PARAM": "Transaminase 1.5 x ULN",
      "PARAMCD": "TRANSHY",
      "PARAMN": 5.0,
      "PARCAT1": "HYLAW",
      "AVAL": 5.397605346934028e-79,
      "BASE": 5.397605346934028e-79,
      "A1LO": NaN,
      "A1HI": NaN,
      "R2A1LO": NaN,
      "R2A1HI": NaN,
      "BR2A1LO": NaN,
      "BR2A1HI": NaN,
      "ABLFL": "",
      "SHIFT1": "Normal to Normal",
      "SHIFT1N": 1.0,
      "CRIT1": "",
      "CRIT1FL": "",
      "CRIT1FN": NaN
    },
    {
      "STUDYID": "CDISCPILOT01",
      "SUBJID": "1015",
      "USUBJID": "01-701-1015",
      "TRTP": "Placebo",
      "TRTPN": 5.397605346934028e-79,
      "TRTA": "Placebo",
      "TRTAN": 5.397605346934028e-79,
      "TRTSDT": 19725.0,
      "TRTEDT": 19906.0,
      "AGE": 63.0,
      "AGEGR1": "<65",
      "AGEGR1N": 1.0,
      "RACE": "WHITE",
      "RACEN": 1.0,
      "SEX": "F",
      "COMP24FL": "Y",
      "DSRAEFL": "",
      "SAFFL": "Y",
      "AVISIT": "Week 8",
      "AVISITN": 8.0,
      "ADY": NaN,
      "ADT": NaN,
      "VISIT": "",
      "VISITNUM": NaN,
      "PARAMTYP": "DERIVED",
      "PARAM": "Total Bili 1.5 x ULN and Transaminase 1.5 x ULN",
      "PARAMCD": "HYLAW",
      "PARAMN": 6.0,
      "PARCAT1": "HYLAW",
      "AVAL": 5.397605346934028e-79,
      "BASE": 5.397605346934028e-79,
      "A1LO": NaN,
      "A1HI": NaN,
      "R2A1LO": NaN,
      "R2A1HI": NaN,
      "BR2A1LO": NaN,
      "BR2A1HI": NaN,
      "ABLFL": "",
      "SHIFT1": "Normal to Normal",
      "SHIFT1N": 1.0,
      "CRIT1": "",
      "CRIT1FL": "",
      "CRIT1FN": NaN
    },
    {
      "STUDYID": "CDISCPILOT01",
      "SUBJID": "1015",
      "USUBJID": "01-701-1015",
      "TRTP": "Placebo",
      "TRTPN": 5.397605346934028e-79,
      "TRTA": "Placebo",
      "TRTAN": 5.397605346934028e-79,
      "TRTSDT": 19725.0,
      "TRTEDT": 19906.0,
      "AGE": 63.0,
      "AGEGR1": "<65",
      "AGEGR1N": 1.0,
      "RACE": "WHITE",
      "RACEN": 1.0,
      "SEX": "F",
      "COMP24FL": "Y",
      "DSRAEFL": "",
      "SAFFL": "Y",
      "AVISIT": "Week 12",
      "AVISITN": 12.0,
      "ADY": 84.0,
      "ADT": 19808.0,
      "VISIT": "WEEK 12",
      "VISITNUM": 9.0,
      "PARAMTYP": "",
      "PARAM": "Alanine Aminotransferase (U/L)",
      "PARAMCD": "ALT",
      "PARAMN": 1.0,
      "PARCAT1": "CHEM",
      "AVAL": 27.0,
      "BASE": 27.0,
      "A1LO": 6.0,
      "A1HI": 34.0,
      "R2A1LO": 4.5,
      "R2A1HI": 0.7941176470588235,
      "BR2A1LO": 4.5,
      "BR2A1HI": 0.7941176470588235,
      "ABLFL": "",
      "SHIFT1": "",
      "SHIFT1N": NaN,
      "CRIT1": "R2A1HI > 1.5",
      "CRIT1FL": "N",
      "CRIT1FN": 5.397605346934028e-79
    },
    {
      "STUDYID": "CDISCPILOT01",
      "SUBJID": "1015",
      "USUBJID": "01-701-1015",
      "TRTP": "Placebo",
      "TRTPN": 5.397605346934028e-79,
      "TRTA": "Placebo",
      "TRTAN": 5.397605346934028e-79,
      "TRTSDT": 19725.0,
      "TRTEDT": 19906.0,
      "AGE": 63.0,
      "AGEGR1": "<65",
      "AGEGR1N": 1.0,
      "RACE": "WHITE",
      "RACEN": 1.0,
      "SEX": "F",
      "COMP24FL": "Y",
      "DSRAEFL": "",
      "SAFFL": "Y",
      "AVISIT": "Week 12",
      "AVISITN": 12.0,
      "ADY": 84.0,
      "ADT": 19808.0,
      "VISIT": "WEEK 12",
      "VISITNUM": 9.0,
      "PARAMTYP": "",
      "PARAM": "Aspartate Aminotransferase (U/L)",
      "PARAMCD": "AST",
      "PARAMN": 2.0,
      "PARCAT1": "CHEM",
      "AVAL": 22.0,
      "BASE": 40.0,
      "A1LO": 9.0,
      "A1HI": 34.0,
      "R2A1LO": 2.4444444444444446,
      "R2A1HI": 0.6470588235294118,
      "BR2A1LO": 4.444444444444445,
      "BR2A1HI": 1.1764705882352942,
      "ABLFL": "",
      "SHIFT1": "",
      "SHIFT1N": NaN,
      "CRIT1": "R2A1HI > 1.5",
      "CRIT1FL": "N",
      "CRIT1FN": 5.397605346934028e-79
    },
    {
      "STUDYID": "CDISCPILOT01",
      "SUBJID": "1015",
      "USUBJID": "01-701-1015",
      "TRTP": "Placebo",
      "TRTPN": 5.397605346934028e-79,
      "TRTA": "Placebo",
      "TRTAN": 5.397605346934028e-79,
      "TRTSDT": 19725.0,
      "TRTEDT": 19906.0,
      "AGE": 63.0,
      "AGEGR1": "<65",
      "AGEGR1N": 1.0,
      "RACE": "WHITE",
      "RACEN": 1.0,
      "SEX": "F",
      "COMP24FL": "Y",
      "DSRAEFL": "",
      "SAFFL": "Y",
      "AVISIT": "Week 12",
      "AVISITN": 12.0,
      "ADY": 84.0,
      "ADT": 19808.0,
      "VISIT": "WEEK 12",
      "VISITNUM": 9.0,
      "PARAMTYP": "",
      "PARAM": "Bilirubin (umol/L)",
      "PARAMCD": "BILI",
      "PARAMN": 3.0,
      "PARCAT1": "CHEM",
      "AVAL": 6.84,
      "BASE": 10.26,
      "A1LO": 3.0,
      "A1HI": 21.0,
      "R2A1LO": 2.28,
      "R2A1HI": 0.32571428571428573,
      "BR2A1LO": 3.42,
      "BR2A1HI": 0.48857142857142855,
      "ABLFL": "",
      "SHIFT1": "",
      "SHIFT1N": NaN,
      "CRIT1": "R2A1HI > 1.5",
      "CRIT1FL": "N",
      "CRIT1FN": 5.397605346934028e-79
    },
    {
      "STUDYID": "CDISCPILOT01",
      "SUBJID": "1015",
      "USUBJID": "01-701-1015",
      "TRTP": "Placebo",
      "TRTPN": 5.397605346934028e-79,
      "TRTA": "Placebo",
      "TRTAN": 5.397605346934028e-79,
      "TRTSDT": 19725.0,
      "TRTEDT": 19906.0,
      "AGE": 63.0,
      "AGEGR1": "<65",
      "AGEGR1N": 1.0,
      "RACE": "WHITE",
      "RACEN": 1.0,
      "SEX": "F",
      "COMP24FL": "Y",
      "DSRAEFL": "",
      "SAFFL": "Y",
      "AVISIT": "Week 12",
      "AVISITN": 12.0,
      "ADY": NaN,
      "ADT": NaN,
      "VISIT": "",
      "VISITNUM": NaN,
      "PARAMTYP": "DERIVED",
      "PARAM": "Bilirubin 1.5 x ULN",
      "PARAMCD": "BILIHY",
      "PARAMN": 4.0,
      "PARCAT1": "HYLAW",
      "AVAL": 5.397605346934028e-79,
      "BASE": 5.397605346934028e-79,
      "A1LO": NaN,
      "A1HI": NaN,
      "R2A1LO": NaN,
      "R2A1HI": NaN,
      "BR2A1LO": NaN,
      "BR2A1HI": NaN,
      "ABLFL": "",
      "SHIFT1": "Normal to Normal",
      "SHIFT1N": 1.0,
      "CRIT1": "",
      "CRIT1FL": "",
      "CRIT1FN": NaN
    },
    {
      "STUDYID": "CDISCPILOT01",
      "SUBJID": "1015",
      "USUBJID": "01-701-1015",
      "TRTP": "Placebo",
      "TRTPN": 5.397605346934028e-79,
      "TRTA": "Placebo",
      "TRTAN": 5.397605346934028e-79,
      "TRTSDT": 19725.0,
      "TRTEDT": 19906.0,
      "AGE": 63.0,
      "AGEGR1": "<65",
      "AGEGR1N": 1.0,
      "RACE": "WHITE",
      "RACEN": 1.0,
      "SEX": "F",
      "COMP24FL": "Y",
      "DSRAEFL": "",
      "SAFFL": "Y",
      "AVISIT": "Week 12",
      "AVISITN": 12.0,
      "ADY": NaN,
      "ADT": NaN,
      "VISIT": "",
      "VISITNUM": NaN,
      "PARAMTYP": "DERIVED",
      "PARAM": "Transaminase 1.5 x ULN",
      "PARAMCD": "TRANSHY",
      "PARAMN": 5.0,
      "PARCAT1": "HYLAW",
      "AVAL": 5.397605346934028e-79,
      "BASE": 5.397605346934028e-79,
      "A1LO": NaN,
      "A1HI": NaN,
      "R2A1LO": NaN,
      "R2A1HI": NaN,
      "BR2A1LO": NaN,
      "BR2A1HI": NaN,
      "ABLFL": "",
      "SHIFT1": "Normal to Normal",
      "SHIFT1N": 1.0,
      "CRIT1": "",
      "CRIT1FL": "",
      "CRIT1FN": NaN
    },
    {
      "STUDYID": "CDISCPILOT01",
      "SUBJID": "1015",
      "USUBJID": "01-701-1015",
      "TRTP": "Placebo",
      "TRTPN": 5.397605346934028e-79,
      "TRTA": "Placebo",
      "TRTAN": 5.397605346934028e-79,
      "TRTSDT": 19725.0,
      "TRTEDT": 19906.0,
      "AGE": 63.0,
      "AGEGR1": "<65",
      "AGEGR1N": 1.0,
      "RACE": "WHITE",
      "RACEN": 1.0,
      "SEX": "F",
      "COMP24FL": "Y",
      "DSRAEFL": "",
      "SAFFL": "Y",
      "AVISIT": "Week 12",
      "AVISITN": 12.0,
      "ADY": NaN,
      "ADT": NaN,
      "VISIT": "",
      "VISITNUM": NaN,
      "PARAMTYP": "DERIVED",
      "PARAM": "Total Bili 1.5 x ULN and Transaminase 1.5 x ULN",
      "PARAMCD": "HYLAW",
      "PARAMN": 6.0,
      "PARCAT1": "HYLAW",
      "AVAL": 5.397605346934028e-79,
      "BASE": 5.397605346934028e-79,
      "A1LO": NaN,
      "A1HI": NaN,
      "R2A1LO": NaN,
      "R2A1HI": NaN,
      "BR2A1LO": NaN,
      "BR2A1HI": NaN,
      "ABLFL": "",
      "SHIFT1": "Normal to Normal",
      "SHIFT1N": 1.0,
      "CRIT1": "",
      "CRIT1FL": "",
      "CRIT1FN": NaN
    },
    {
      "STUDYID": "CDISCPILOT01",
      "SUBJID": "1015",
      "USUBJID": "01-701-1015",
      "TRTP": "Placebo",
      "TRTPN": 5.397605346934028e-79,
      "TRTA": "Placebo",
      "TRTAN": 5.397605346934028e-79,
      "TRTSDT": 19725.0,
      "TRTEDT": 19906.0,
      "AGE": 63.0,
      "AGEGR1": "<65",
      "AGEGR1N": 1.0,
      "RACE": "WHITE",
      "RACEN": 1.0,
      "SEX": "F",
      "COMP24FL": "Y",
      "DSRAEFL": "",
      "SAFFL": "Y",
      "AVISIT": "Week 16",
      "AVISITN": 16.0,
      "ADY": 126.0,
      "ADT": 19850.0,
      "VISIT": "WEEK 16",
      "VISITNUM": 10.0,
      "PARAMTYP": "",
      "PARAM": "Alanine Aminotransferase (U/L)",
      "PARAMCD": "ALT",
      "PARAMN": 1.0,
      "PARCAT1": "CHEM",
      "AVAL": 17.0,
      "BASE": 27.0,
      "A1LO": 6.0,
      "A1HI": 34.0,
      "R2A1LO": 2.8333333333333335,
      "R2A1HI": 0.5,
      "BR2A1LO": 4.5,
      "BR2A1HI": 0.7941176470588235,
      "ABLFL": "",
      "SHIFT1": "",
      "SHIFT1N": NaN,
      "CRIT1": "R2A1HI > 1.5",
      "CRIT1FL": "N",
      "CRIT1FN": 5.397605346934028e-79
    },
    {
      "STUDYID": "CDISCPILOT01",
      "SUBJID": "1015",
      "USUBJID": "01-701-1015",
      "TRTP": "Placebo",
      "TRTPN": 5.397605346934028e-79,
      "TRTA": "Placebo",
      "TRTAN": 5.397605346934028e-79,
      "TRTSDT": 19725.0,
      "TRTEDT": 19906.0,
      "AGE": 63.0,
      "AGEGR1": "<65",
      "AGEGR1N": 1.0,
      "RACE": "WHITE",
      "RACEN": 1.0,
      "SEX": "F",
      "COMP24FL": "Y",
      "DSRAEFL": "",
      "SAFFL": "Y",
      "AVISIT": "Week 16",
      "AVISITN": 16.0,
      "ADY": 126.0,
      "ADT": 19850.0,
      "VISIT": "WEEK 16",
      "VISITNUM": 10.0,
      "PARAMTYP": "",
      "PARAM": "Aspartate Aminotransferase (U/L)",
      "PARAMCD": "AST",
      "PARAMN": 2.0,
      "PARCAT1": "CHEM",
      "AVAL": 23.0,
      "BASE": 40.0,
      "A1LO": 9.0,
      "A1HI": 34.0,
      "R2A1LO": 2.5555555555555554,
      "R2A1HI": 0.6764705882352942,
      "BR2A1LO": 4.444444444444445,
      "BR2A1HI": 1.1764705882352942,
      "ABLFL": "",
      "SHIFT1": "",
      "SHIFT1N": NaN,
      "CRIT1": "R2A1HI > 1.5",
      "CRIT1FL": "N",
      "CRIT1FN": 5.397605346934028e-79
    },
    {
      "STUDYID": "CDISCPILOT01",
      "SUBJID": "1015",
      "USUBJID": "01-701-1015",
      "TRTP": "Placebo",
      "TRTPN": 5.397605346934028e-79,
      "TRTA": "Placebo",
      "TRTAN": 5.397605346934028e-79,
      "TRTSDT": 19725.0,
      "TRTEDT": 19906.0,
      "AGE": 63.0,
      "AGEGR1": "<65",
      "AGEGR1N": 1.0,
      "RACE": "WHITE",
      "RACEN": 1.0,
      "SEX": "F",
      "COMP24FL": "Y",
      "DSRAEFL": "",
      "SAFFL": "Y",
      "AVISIT": "Week 16",
      "AVISITN": 16.0,
      "ADY": 126.0,
      "ADT": 19850.0,
      "VISIT": "WEEK 16",
      "VISITNUM": 10.0,
      "PARAMTYP": "",
      "PARAM": "Bilirubin (umol/L)",
      "PARAMCD": "BILI",
      "PARAMN": 3.0,
      "PARCAT1": "CHEM",
      "AVAL": 6.84,
      "BASE": 10.26,
      "A1LO": 3.0,
      "A1HI": 21.0,
      "R2A1LO": 2.28,
      "R2A1HI": 0.32571428571428573,
      "BR2A1LO": 3.42,
      "BR2A1HI": 0.48857142857142855,
      "ABLFL": "",
      "SHIFT1": "",
      "SHIFT1N": NaN,
      "CRIT1": "R2A1HI > 1.5",
      "CRIT1FL": "N",
      "CRIT1FN": 5.397605346934028e-79
    },
    {
      "STUDYID": "CDISCPILOT01",
      "SUBJID": "1015",
      "USUBJID": "01-701-1015",
      "TRTP": "Placebo",
      "TRTPN": 5.397605346934028e-79,
      "TRTA": "Placebo",
      "TRTAN": 5.397605346934028e-79,
      "TRTSDT": 19725.0,
      "TRTEDT": 19906.0,
      "AGE": 63.0,
      "AGEGR1": "<65",
      "AGEGR1N": 1.0,
      "RACE": "WHITE",
      "RACEN": 1.0,
      "SEX": "F",
      "COMP24FL": "Y",
      "DSRAEFL": "",
      "SAFFL": "Y",
      "AVISIT": "Week 16",
      "AVISITN": 16.0,
      "ADY": NaN,
      "ADT": NaN,
      "VISIT": "",
      "VISITNUM": NaN,
      "PARAMTYP": "DERIVED",
      "PARAM": "Bilirubin 1.5 x ULN",
      "PARAMCD": "BILIHY",
      "PARAMN": 4.0,
      "PARCAT1": "HYLAW",
      "AVAL": 5.397605346934028e-79,
      "BASE": 5.397605346934028e-79,
      "A1LO": NaN,
      "A1HI": NaN,
      "R2A1LO": NaN,
      "R2A1HI": NaN,
      "BR2A1LO": NaN,
      "BR2A1HI": NaN,
      "ABLFL": "",
      "SHIFT1": "Normal to Normal",
      "SHIFT1N": 1.0,
      "CRIT1": "",
      "CRIT1FL": "",
      "CRIT1FN": NaN
    },
    {
      "STUDYID": "CDISCPILOT01",
      "SUBJID": "1015",
      "USUBJID": "01-701-1015",
      "TRTP": "Placebo",
      "TRTPN": 5.397605346934028e-79,
      "TRTA": "Placebo",
      "TRTAN": 5.397605346934028e-79,
      "TRTSDT": 19725.0,
      "TRTEDT": 19906.0,
      "AGE": 63.0,
      "AGEGR1": "<65",
      "AGEGR1N": 1.0,
      "RACE": "WHITE",
      "RACEN": 1.0,
      "SEX": "F",
      "COMP24FL": "Y",
      "DSRAEFL": "",
      "SAFFL": "Y",
      "AVISIT": "Week 16",
      "AVISITN": 16.0,
      "ADY": NaN,
      "ADT": NaN,
      "VISIT": "",
      "VISITNUM": NaN,
      "PARAMTYP": "DERIVED",
      "PARAM": "Transaminase 1.5 x ULN",
      "PARAMCD": "TRANSHY",
      "PARAMN": 5.0,
      "PARCAT1": "HYLAW",
      "AVAL": 5.397605346934028e-79,
      "BASE": 5.397605346934028e-79,
      "A1LO": NaN,
      "A1HI": NaN,
      "R2A1LO": NaN,
      "R2A1HI": NaN,
      "BR2A1LO": NaN,
      "BR2A1HI": NaN,
      "ABLFL": "",
      "SHIFT1": "Normal to Normal",
      "SHIFT1N": 1.0,
      "CRIT1": "",
      "CRIT1FL": "",
      "CRIT1FN": NaN
    },
    {
      "STUDYID": "CDISCPILOT01",
      "SUBJID": "1015",
      "USUBJID": "01-701-1015",
      "TRTP": "Placebo",
      "TRTPN": 5.397605346934028e-79,
      "TRTA": "Placebo",
      "TRTAN": 5.397605346934028e-79,
      "TRTSDT": 19725.0,
      "TRTEDT": 19906.0,
      "AGE": 63.0,
      "AGEGR1": "<65",
      "AGEGR1N": 1.0,
      "RACE": "WHITE",
      "RACEN": 1.0,
      "SEX": "F",
      "COMP24FL": "Y",
      "DSRAEFL": "",
      "SAFFL": "Y",
      "AVISIT": "Week 16",
      "AVISITN": 16.0,
      "ADY": NaN,
      "ADT": NaN,
      "VISIT": "",
      "VISITNUM": NaN,
      "PARAMTYP": "DERIVED",
      "PARAM": "Total Bili 1.5 x ULN and Transaminase 1.5 x ULN",
      "PARAMCD": "HYLAW",
      "PARAMN": 6.0,
      "PARCAT1": "HYLAW",
      "AVAL": 5.397605346934028e-79,
      "BASE": 5.397605346934028e-79,
      "A1LO": NaN,
      "A1HI": NaN,
      "R2A1LO": NaN,
      "R2A1HI": NaN,
      "BR2A1LO": NaN,
      "BR2A1HI": NaN,
      "ABLFL": "",
      "SHIFT1": "Normal to Normal",
      "SHIFT1N": 1.0,
      "CRIT1": "",
      "CRIT1FL": "",
      "CRIT1FN": NaN
    },
    {
      "STUDYID": "CDISCPILOT01",
      "SUBJID": "1015",
      "USUBJID": "01-701-1015",
      "TRTP": "Placebo",
      "TRTPN": 5.397605346934028e-79,
      "TRTA": "Placebo",
      "TRTAN": 5.397605346934028e-79,
      "TRTSDT": 19725.0,
      "TRTEDT": 19906.0,
      "AGE": 63.0,
      "AGEGR1": "<65",
      "AGEGR1N": 1.0,
      "RACE": "WHITE",
      "RACEN": 1.0,
      "SEX": "F",
      "COMP24FL": "Y",
      "DSRAEFL": "",
      "SAFFL": "Y",
      "AVISIT": "Week 20",
      "AVISITN": 20.0,
      "ADY": 140.0,
      "ADT": 19864.0,
      "VISIT": "WEEK 20",
      "VISITNUM": 11.0,
      "PARAMTYP": "",
      "PARAM": "Alanine Aminotransferase (U/L)",
      "PARAMCD": "ALT",
      "PARAMN": 1.0,
      "PARCAT1": "CHEM",
      "AVAL": 21.0,
      "BASE": 27.0,
      "A1LO": 6.0,
      "A1HI": 34.0,
      "R2A1LO": 3.5,
      "R2A1HI": 0.6176470588235294,
      "BR2A1LO": 4.5,
      "BR2A1HI": 0.7941176470588235,
      "ABLFL": "",
      "SHIFT1": "",
      "SHIFT1N": NaN,
      "CRIT1": "R2A1HI > 1.5",
      "CRIT1FL": "N",
      "CRIT1FN": 5.397605346934028e-79
    },
    {
      "STUDYID": "CDISCPILOT01",
      "SUBJID": "1015",
      "USUBJID": "01-701-1015",
      "TRTP": "Placebo",
      "TRTPN": 5.397605346934028e-79,
      "TRTA": "Placebo",
      "TRTAN": 5.397605346934028e-79,
      "TRTSDT": 19725.0,
      "TRTEDT": 19906.0,
      "AGE": 63.0,
      "AGEGR1": "<65",
      "AGEGR1N": 1.0,
      "RACE": "WHITE",
      "RACEN": 1.0,
      "SEX": "F",
      "COMP24FL": "Y",
      "DSRAEFL": "",
      "SAFFL": "Y",
      "AVISIT": "Week 20",
      "AVISITN": 20.0,
      "ADY": 140.0,
      "ADT": 19864.0,
      "VISIT": "WEEK 20",
      "VISITNUM": 11.0,
      "PARAMTYP": "",
      "PARAM": "Aspartate Aminotransferase (U/L)",
      "PARAMCD": "AST",
      "PARAMN": 2.0,
      "PARCAT1": "CHEM",
      "AVAL": 19.0,
      "BASE": 40.0,
      "A1LO": 9.0,
      "A1HI": 34.0,
      "R2A1LO": 2.111111111111111,
      "R2A1HI": 0.5588235294117647,
      "BR2A1LO": 4.444444444444445,
      "BR2A1HI": 1.1764705882352942,
      "ABLFL": "",
      "SHIFT1": "",
      "SHIFT1N": NaN,
      "CRIT1": "R2A1HI > 1.5",
      "CRIT1FL": "N",
      "CRIT1FN": 5.397605346934028e-79
    },
    {
      "STUDYID": "CDISCPILOT01",
      "SUBJID": "1015",
      "USUBJID": "01-701-1015",
      "TRTP": "Placebo",
      "TRTPN": 5.397605346934028e-79,
      "TRTA": "Placebo",
      "TRTAN": 5.397605346934028e-79,
      "TRTSDT": 19725.0,
      "TRTEDT": 19906.0,
      "AGE": 63.0,
      "AGEGR1": "<65",
      "AGEGR1N": 1.0,
      "RACE": "WHITE",
      "RACEN": 1.0,
      "SEX": "F",
      "COMP24FL": "Y",
      "DSRAEFL": "",
      "SAFFL": "Y",
      "AVISIT": "Week 20",
      "AVISITN": 20.0,
      "ADY": 140.0,
      "ADT": 19864.0,
      "VISIT": "WEEK 20",
      "VISITNUM": 11.0,
      "PARAMTYP": "",
      "PARAM": "Bilirubin (umol/L)",
      "PARAMCD": "BILI",
      "PARAMN": 3.0,
      "PARCAT1": "CHEM",
      "AVAL": 6.84,
      "BASE": 10.26,
      "A1LO": 3.0,
      "A1HI": 21.0,
      "R2A1LO": 2.28,
      "R2A1HI": 0.32571428571428573,
      "BR2A1LO": 3.42,
      "BR2A1HI": 0.48857142857142855,
      "ABLFL": "",
      "SHIFT1": "",
      "SHIFT1N": NaN,
      "CRIT1": "R2A1HI > 1.5",
      "CRIT1FL": "N",
      "CRIT1FN": 5.397605346934028e-79
    },
    {
      "STUDYID": "CDISCPILOT01",
      "SUBJID": "1015",
      "USUBJID": "01-701-1015",
      "TRTP": "Placebo",
      "TRTPN": 5.397605346934028e-79,
      "TRTA": "Placebo",
      "TRTAN": 5.397605346934028e-79,
      "TRTSDT": 19725.0,
      "TRTEDT": 19906.0,
      "AGE": 63.0,
      "AGEGR1": "<65",
      "AGEGR1N": 1.0,
      "RACE": "WHITE",
      "RACEN": 1.0,
      "SEX": "F",
      "COMP24FL": "Y",
      "DSRAEFL": "",
      "SAFFL": "Y",
      "AVISIT": "Week 20",
      "AVISITN": 20.0,
      "ADY": NaN,
      "ADT": NaN,
      "VISIT": "",
      "VISITNUM": NaN,
      "PARAMTYP": "DERIVED",
      "PARAM": "Bilirubin 1.5 x ULN",
      "PARAMCD": "BILIHY",
      "PARAMN": 4.0,
      "PARCAT1": "HYLAW",
      "AVAL": 5.397605346934028e-79,
      "BASE": 5.397605346934028e-79,
      "A1LO": NaN,
      "A1HI": NaN,
      "R2A1LO": NaN,
      "R2A1HI": NaN,
      "BR2A1LO": NaN,
      "BR2A1HI": NaN,
      "ABLFL": "",
      "SHIFT1": "Normal to Normal",
      "SHIFT1N": 1.0,
      "CRIT1": "",
      "CRIT1FL": "",
      "CRIT1FN": NaN
    },
    {
      "STUDYID": "CDISCPILOT01",
      "SUBJID": "1015",
      "USUBJID": "01-701-1015",
      "TRTP": "Placebo",
      "TRTPN": 5.397605346934028e-79,
      "TRTA": "Placebo",
      "TRTAN": 5.397605346934028e-79,
      "TRTSDT": 19725.0,
      "TRTEDT": 19906.0,
      "AGE": 63.0,
      "AGEGR1": "<65",
      "AGEGR1N": 1.0,
      "RACE": "WHITE",
      "RACEN": 1.0,
      "SEX": "F",
      "COMP24FL": "Y",
      "DSRAEFL": "",
      "SAFFL": "Y",
      "AVISIT": "Week 20",
      "AVISITN": 20.0,
      "ADY": NaN,
      "ADT": NaN,
      "VISIT": "",
      "VISITNUM": NaN,
      "PARAMTYP": "DERIVED",
      "PARAM": "Transaminase 1.5 x ULN",
      "PARAMCD": "TRANSHY",
      "PARAMN": 5.0,
      "PARCAT1": "HYLAW",
      "AVAL": 5.397605346934028e-79,
      "BASE": 5.397605346934028e-79,
      "A1LO": NaN,
      "A1HI": NaN,
      "R2A1LO": NaN,
      "R2A1HI": NaN,
      "BR2A1LO": NaN,
      "BR2A1HI": NaN,
      "ABLFL": "",
      "SHIFT1": "Normal to Normal",
      "SHIFT1N": 1.0,
      "CRIT1": "",
      "CRIT1FL": "",
      "CRIT1FN": NaN
    },
    {
      "STUDYID": "CDISCPILOT01",
      "SUBJID": "1015",
      "USUBJID": "01-701-1015",
      "TRTP": "Placebo",
      "TRTPN": 5.397605346934028e-79,
      "TRTA": "Placebo",
      "TRTAN": 5.397605346934028e-79,
      "TRTSDT": 19725.0,
      "TRTEDT": 19906.0,
      "AGE": 63.0,
      "AGEGR1": "<65",
      "AGEGR1N": 1.0,
      "RACE": "WHITE",
      "RACEN": 1.0,
      "SEX": "F",
      "COMP24FL": "Y",
      "DSRAEFL": "",
      "SAFFL": "Y",
      "AVISIT": "Week 20",
      "AVISITN": 20.0,
      "ADY": NaN,
      "ADT": NaN,
      "VISIT": "",
      "VISITNUM": NaN,
      "PARAMTYP": "DERIVED",
      "PARAM": "Total Bili 1.5 x ULN and Transaminase 1.5 x ULN",
      "PARAMCD": "HYLAW",
      "PARAMN": 6.0,
      "PARCAT1": "HYLAW",
      "AVAL": 5.397605346934028e-79,
      "BASE": 5.397605346934028e-79,
      "A1LO": NaN,
      "A1HI": NaN,
      "R2A1LO": NaN,
      "R2A1HI": NaN,
      "BR2A1LO": NaN,
      "BR2A1HI": NaN,
      "ABLFL": "",
      "SHIFT1": "Normal to Normal",
      "SHIFT1N": 1.0,
      "CRIT1": "",
      "CRIT1FL": "",
      "CRIT1FN": NaN
    },
    {
      "STUDYID": "CDISCPILOT01",
      "SUBJID": "1015",
      "USUBJID": "01-701-1015",
      "TRTP": "Placebo",
      "TRTPN": 5.397605346934028e-79,
      "TRTA": "Placebo",
      "TRTAN": 5.397605346934028e-79,
      "TRTSDT": 19725.0,
      "TRTEDT": 19906.0,
      "AGE": 63.0,
      "AGEGR1": "<65",
      "AGEGR1N": 1.0,
      "RACE": "WHITE",
      "RACEN": 1.0,
      "SEX": "F",
      "COMP24FL": "Y",
      "DSRAEFL": "",
      "SAFFL": "Y",
      "AVISIT": "Week 24",
      "AVISITN": 24.0,
      "ADY": 168.0,
      "ADT": 19892.0,
      "VISIT": "WEEK 24",
      "VISITNUM": 12.0,
      "PARAMTYP": "",
      "PARAM": "Alanine Aminotransferase (U/L)",
      "PARAMCD": "ALT",
      "PARAMN": 1.0,
      "PARCAT1": "CHEM",
      "AVAL": 23.0,
      "BASE": 27.0,
      "A1LO": 6.0,
      "A1HI": 34.0,
      "R2A1LO": 3.8333333333333335,
      "R2A1HI": 0.6764705882352942,
      "BR2A1LO": 4.5,
      "BR2A1HI": 0.7941176470588235,
      "ABLFL": "",
      "SHIFT1": "",
      "SHIFT1N": NaN,
      "CRIT1": "R2A1HI > 1.5",
      "CRIT1FL": "N",
      "CRIT1FN": 5.397605346934028e-79
    },
    {
      "STUDYID": "CDISCPILOT01",
      "SUBJID": "1015",
      "USUBJID": "01-701-1015",
      "TRTP": "Placebo",
      "TRTPN": 5.397605346934028e-79,
      "TRTA": "Placebo",
      "TRTAN": 5.397605346934028e-79,
      "TRTSDT": 19725.0,
      "TRTEDT": 19906.0,
      "AGE": 63.0,
      "AGEGR1": "<65",
      "AGEGR1N": 1.0,
      "RACE": "WHITE",
      "RACEN": 1.0,
      "SEX": "F",
      "COMP24FL": "Y",
      "DSRAEFL": "",
      "SAFFL": "Y",
      "AVISIT": "Week 24",
      "AVISITN": 24.0,
      "ADY": 168.0,
      "ADT": 19892.0,
      "VISIT": "WEEK 24",
      "VISITNUM": 12.0,
      "PARAMTYP": "",
      "PARAM": "Aspartate Aminotransferase (U/L)",
      "PARAMCD": "AST",
      "PARAMN": 2.0,
      "PARCAT1": "CHEM",
      "AVAL": 23.0,
      "BASE": 40.0,
      "A1LO": 9.0,
      "A1HI": 34.0,
      "R2A1LO": 2.5555555555555554,
      "R2A1HI": 0.6764705882352942,
      "BR2A1LO": 4.444444444444445,
      "BR2A1HI": 1.1764705882352942,
      "ABLFL": "",
      "SHIFT1": "",
      "SHIFT1N": NaN,
      "CRIT1": "R2A1HI > 1.5",
      "CRIT1FL": "N",
      "CRIT1FN": 5.397605346934028e-79
    },
    {
      "STUDYID": "CDISCPILOT01",
      "SUBJID": "1015",
      "USUBJID": "01-701-1015",
      "TRTP": "Placebo",
      "TRTPN": 5.397605346934028e-79,
      "TRTA": "Placebo",
      "TRTAN": 5.397605346934028e-79,
      "TRTSDT": 19725.0,
      "TRTEDT": 19906.0,
      "AGE": 63.0,
      "AGEGR1": "<65",
      "AGEGR1N": 1.0,
      "RACE": "WHITE",
      "RACEN": 1.0,
      "SEX": "F",
      "COMP24FL": "Y",
      "DSRAEFL": "",
      "SAFFL": "Y",
      "AVISIT": "Week 24",
      "AVISITN": 24.0,
      "ADY": 168.0,
      "ADT": 19892.0,
      "VISIT": "WEEK 24",
      "VISITNUM": 12.0,
      "PARAMTYP": "",
      "PARAM": "Bilirubin (umol/L)",
      "PARAMCD": "BILI",
      "PARAMN": 3.0,
      "PARCAT1": "CHEM",
      "AVAL": 6.84,
      "BASE": 10.26,
      "A1LO": 3.0,
      "A1HI": 21.0,
      "R2A1LO": 2.28,
      "R2A1HI": 0.32571428571428573,
      "BR2A1LO": 3.42,
      "BR2A1HI": 0.48857142857142855,
      "ABLFL": "",
      "SHIFT1": "",
      "SHIFT1N": NaN,
      "CRIT1": "R2A1HI > 1.5",
      "CRIT1FL": "N",
      "CRIT1FN": 5.397605346934028e-79
    },
    {
      "STUDYID": "CDISCPILOT01",
      "SUBJID": "1015",
      "USUBJID": "01-701-1015",
      "TRTP": "Placebo",
      "TRTPN": 5.397605346934028e-79,
      "TRTA": "Placebo",
      "TRTAN": 5.397605346934028e-79,
      "TRTSDT": 19725.0,
      "TRTEDT": 19906.0,
      "AGE": 63.0,
      "AGEGR1": "<65",
      "AGEGR1N": 1.0,
      "RACE": "WHITE",
      "RACEN": 1.0,
      "SEX": "F",
      "COMP24FL": "Y",
      "DSRAEFL": "",
      "SAFFL": "Y",
      "AVISIT": "Week 24",
      "AVISITN": 24.0,
      "ADY": NaN,
      "ADT": NaN,
      "VISIT": "",
      "VISITNUM": NaN,
      "PARAMTYP": "DERIVED",
      "PARAM": "Bilirubin 1.5 x ULN",
      "PARAMCD": "BILIHY",
      "PARAMN": 4.0,
      "PARCAT1": "HYLAW",
      "AVAL": 5.397605346934028e-79,
      "BASE": 5.397605346934028e-79,
      "A1LO": NaN,
      "A1HI": NaN,
      "R2A1LO": NaN,
      "R2A1HI": NaN,
      "BR2A1LO": NaN,
      "BR2A1HI": NaN,
      "ABLFL": "",
      "SHIFT1": "Normal to Normal",
      "SHIFT1N": 1.0,
      "CRIT1": "",
      "CRIT1FL": "",
      "CRIT1FN": NaN
    },
    {
      "STUDYID": "CDISCPILOT01",
      "SUBJID": "1015",
      "USUBJID": "01-701-1015",
      "TRTP": "Placebo",
      "TRTPN": 5.397605346934028e-79,
      "TRTA": "Placebo",
      "TRTAN": 5.397605346934028e-79,
      "TRTSDT": 19725.0,
      "TRTEDT": 19906.0,
      "AGE": 63.0,
      "AGEGR1": "<65",
      "AGEGR1N": 1.0,
      "RACE": "WHITE",
      "RACEN": 1.0,
      "SEX": "F",
      "COMP24FL": "Y",
      "DSRAEFL": "",
      "SAFFL": "Y",
      "AVISIT": "Week 24",
      "AVISITN": 24.0,
      "ADY": NaN,
      "ADT": NaN,
      "VISIT": "",
      "VISITNUM": NaN,
      "PARAMTYP": "DERIVED",
      "PARAM": "Transaminase 1.5 x ULN",
      "PARAMCD": "TRANSHY",
      "PARAMN": 5.0,
      "PARCAT1": "HYLAW",
      "AVAL": 5.397605346934028e-79,
      "BASE": 5.397605346934028e-79,
      "A1LO": NaN,
      "A1HI": NaN,
      "R2A1LO": NaN,
      "R2A1HI": NaN,
      "BR2A1LO": NaN,
      "BR2A1HI": NaN,
      "ABLFL": "",
      "SHIFT1": "Normal to Normal",
      "SHIFT1N": 1.0,
      "CRIT1": "",
      "CRIT1FL": "",
      "CRIT1FN": NaN
    },
    {
      "STUDYID": "CDISCPILOT01",
      "SUBJID": "1015",
      "USUBJID": "01-701-1015",
      "TRTP": "Placebo",
      "TRTPN": 5.397605346934028e-79,
      "TRTA": "Placebo",
      "TRTAN": 5.397605346934028e-79,
      "TRTSDT": 19725.0,
      "TRTEDT": 19906.0,
      "AGE": 63.0,
      "AGEGR1": "<65",
      "AGEGR1N": 1.0,
      "RACE": "WHITE",
      "RACEN": 1.0,
      "SEX": "F",
      "COMP24FL": "Y",
      "DSRAEFL": "",
      "SAFFL": "Y",
      "AVISIT": "Week 24",
      "AVISITN": 24.0,
      "ADY": NaN,
      "ADT": NaN,
      "VISIT": "",
      "VISITNUM": NaN,
      "PARAMTYP": "DERIVED",
      "PARAM": "Total Bili 1.5 x ULN and Transaminase 1.5 x ULN",
      "PARAMCD": "HYLAW",
      "PARAMN": 6.0,
      "PARCAT1": "HYLAW",
      "AVAL": 5.397605346934028e-79,
      "BASE": 5.397605346934028e-79,
      "A1LO": NaN,
      "A1HI": NaN,
      "R2A1LO": NaN,
      "R2A1HI": NaN,
      "BR2A1LO": NaN,
      "BR2A1HI": NaN,
      "ABLFL": "",
      "SHIFT1": "Normal to Normal",
      "SHIFT1N": 1.0,
      "CRIT1": "",
      "CRIT1FL": "",
      "CRIT1FN": NaN
    },
    {
      "STUDYID": "CDISCPILOT01",
      "SUBJID": "1023",
      "USUBJID": "01-701-1023",
      "TRTP": "Placebo",
      "TRTPN": 5.397605346934028e-79,
      "TRTA": "Placebo",
      "TRTAN": 5.397605346934028e-79,
      "TRTSDT": 19210.0,
      "TRTEDT": 19237.0,
      "AGE": 64.0,
      "AGEGR1": "<65",
      "AGEGR1N": 1.0,
      "RACE": "WHITE",
      "RACEN": 1.0,
      "SEX": "M",
      "COMP24FL": "N",
      "DSRAEFL": "Y",
      "SAFFL": "Y",
      "AVISIT": "Baseline",
      "AVISITN": 5.397605346934028e-79,
      "ADY": -14.0,
      "ADT": 19196.0,
      "VISIT": "SCREENING 1",
      "VISITNUM": 1.0,
      "PARAMTYP": "",
      "PARAM": "Alanine Aminotransferase (U/L)",
      "PARAMCD": "ALT",
      "PARAMN": 1.0,
      "PARCAT1": "CHEM",
      "AVAL": 23.0,
      "BASE": 23.0,
      "A1LO": 6.0,
      "A1HI": 43.0,
      "R2A1LO": 3.8333333333333335,
      "R2A1HI": 0.5348837209302325,
      "BR2A1LO": 3.8333333333333335,
      "BR2A1HI": 0.5348837209302325,
      "ABLFL": "Y",
      "SHIFT1": "",
      "SHIFT1N": NaN,
      "CRIT1": "R2A1HI > 1.5",
      "CRIT1FL": "N",
      "CRIT1FN": 5.397605346934028e-79
    },
    {
      "STUDYID": "CDISCPILOT01",
      "SUBJID": "1023",
      "USUBJID": "01-701-1023",
      "TRTP": "Placebo",
      "TRTPN": 5.397605346934028e-79,
      "TRTA": "Placebo",
      "TRTAN": 5.397605346934028e-79,
      "TRTSDT": 19210.0,
      "TRTEDT": 19237.0,
      "AGE": 64.0,
      "AGEGR1": "<65",
      "AGEGR1N": 1.0,
      "RACE": "WHITE",
      "RACEN": 1.0,
      "SEX": "M",
      "COMP24FL": "N",
      "DSRAEFL": "Y",
      "SAFFL": "Y",
      "AVISIT": "Baseline",
      "AVISITN": 5.397605346934028e-79,
      "ADY": -14.0,
      "ADT": 19196.0,
      "VISIT": "SCREENING 1",
      "VISITNUM": 1.0,
      "PARAMTYP": "",
      "PARAM": "Aspartate Aminotransferase (U/L)",
      "PARAMCD": "AST",
      "PARAMN": 2.0,
      "PARCAT1": "CHEM",
      "AVAL": 21.0,
      "BASE": 21.0,
      "A1LO": 11.0,
      "A1HI": 36.0,
      "R2A1LO": 1.9090909090909092,
      "R2A1HI": 0.5833333333333334,
      "BR2A1LO": 1.9090909090909092,
      "BR2A1HI": 0.5833333333333334,
      "ABLFL": "Y",
      "SHIFT1": "",
      "SHIFT1N": NaN,
      "CRIT1": "R2A1HI > 1.5",
      "CRIT1FL": "N",
      "CRIT1FN": 5.397605346934028e-79
    },
    {
      "STUDYID": "CDISCPILOT01",
      "SUBJID": "1023",
      "USUBJID": "01-701-1023",
      "TRTP": "Placebo",
      "TRTPN": 5.397605346934028e-79,
      "TRTA": "Placebo",
      "TRTAN": 5.397605346934028e-79,
      "TRTSDT": 19210.0,
      "TRTEDT": 19237.0,
      "AGE": 64.0,
      "AGEGR1": "<65",
      "AGEGR1N": 1.0,
      "RACE": "WHITE",
      "RACEN": 1.0,
      "SEX": "M",
      "COMP24FL": "N",
      "DSRAEFL": "Y",
      "SAFFL": "Y",
      "AVISIT": "Baseline",
      "AVISITN": 5.397605346934028e-79,
      "ADY": -14.0,
      "ADT": 19196.0,
      "VISIT": "SCREENING 1",
      "VISITNUM": 1.0,
      "PARAMTYP": "",
      "PARAM": "Bilirubin (umol/L)",
      "PARAMCD": "BILI",
      "PARAMN": 3.0,
      "PARCAT1": "CHEM",
      "AVAL": 11.969999999999999,
      "BASE": 11.969999999999999,
      "A1LO": 3.0,
      "A1HI": 21.0,
      "R2A1LO": 3.9899999999999998,
      "R2A1HI": 0.57,
      "BR2A1LO": 3.9899999999999998,
      "BR2A1HI": 0.57,
      "ABLFL": "Y",
      "SHIFT1": "",
      "SHIFT1N": NaN,
      "CRIT1": "R2A1HI > 1.5",
      "CRIT1FL": "N",
      "CRIT1FN": 5.397605346934028e-79
    },
    {
      "STUDYID": "CDISCPILOT01",
      "SUBJID": "1023",
      "USUBJID": "01-701-1023",
      "TRTP": "Placebo",
      "TRTPN": 5.397605346934028e-79,
      "TRTA": "Placebo",
      "TRTAN": 5.397605346934028e-79,
      "TRTSDT": 19210.0,
      "TRTEDT": 19237.0,
      "AGE": 64.0,
      "AGEGR1": "<65",
      "AGEGR1N": 1.0,
      "RACE": "WHITE",
      "RACEN": 1.0,
      "SEX": "M",
      "COMP24FL": "N",
      "DSRAEFL": "Y",
      "SAFFL": "Y",
      "AVISIT": "Baseline",
      "AVISITN": 5.397605346934028e-79,
      "ADY": NaN,
      "ADT": NaN,
      "VISIT": "",
      "VISITNUM": NaN,
      "PARAMTYP": "DERIVED",
      "PARAM": "Bilirubin 1.5 x ULN",
      "PARAMCD": "BILIHY",
      "PARAMN": 4.0,
      "PARCAT1": "HYLAW",
      "AVAL": 5.397605346934028e-79,
      "BASE": 5.397605346934028e-79,
      "A1LO": NaN,
      "A1HI": NaN,
      "R2A1LO": NaN,
      "R2A1HI": NaN,
      "BR2A1LO": NaN,
      "BR2A1HI": NaN,
      "ABLFL": "Y",
      "SHIFT1": "Normal to Normal",
      "SHIFT1N": 1.0,
      "CRIT1": "",
      "CRIT1FL": "",
      "CRIT1FN": NaN
    },
    {
      "STUDYID": "CDISCPILOT01",
      "SUBJID": "1023",
      "USUBJID": "01-701-1023",
      "TRTP": "Placebo",
      "TRTPN": 5.397605346934028e-79,
      "TRTA": "Placebo",
      "TRTAN": 5.397605346934028e-79,
      "TRTSDT": 19210.0,
      "TRTEDT": 19237.0,
      "AGE": 64.0,
      "AGEGR1": "<65",
      "AGEGR1N": 1.0,
      "RACE": "WHITE",
      "RACEN": 1.0,
      "SEX": "M",
      "COMP24FL": "N",
      "DSRAEFL": "Y",
      "SAFFL": "Y",
      "AVISIT": "Baseline",
      "AVISITN": 5.397605346934028e-79,
      "ADY": NaN,
      "ADT": NaN,
      "VISIT": "",
      "VISITNUM": NaN,
      "PARAMTYP": "DERIVED",
      "PARAM": "Transaminase 1.5 x ULN",
      "PARAMCD": "TRANSHY",
      "PARAMN": 5.0,
      "PARCAT1": "HYLAW",
      "AVAL": 5.397605346934028e-79,
      "BASE": 5.397605346934028e-79,
      "A1LO": NaN,
      "A1HI": NaN,
      "R2A1LO": NaN,
      "R2A1HI": NaN,
      "BR2A1LO": NaN,
      "BR2A1HI": NaN,
      "ABLFL": "Y",
      "SHIFT1": "Normal to Normal",
      "SHIFT1N": 1.0,
      "CRIT1": "",
      "CRIT1FL": "",
      "CRIT1FN": NaN
    },
    {
      "STUDYID": "CDISCPILOT01",
      "SUBJID": "1023",
      "USUBJID": "01-701-1023",
      "TRTP": "Placebo",
      "TRTPN": 5.397605346934028e-79,
      "TRTA": "Placebo",
      "TRTAN": 5.397605346934028e-79,
      "TRTSDT": 19210.0,
      "TRTEDT": 19237.0,
      "AGE": 64.0,
      "AGEGR1": "<65",
      "AGEGR1N": 1.0,
      "RACE": "WHITE",
      "RACEN": 1.0,
      "SEX": "M",
      "COMP24FL": "N",
      "DSRAEFL": "Y",
      "SAFFL": "Y",
      "AVISIT": "Baseline",
      "AVISITN": 5.397605346934028e-79,
      "ADY": NaN,
      "ADT": NaN,
      "VISIT": "",
      "VISITNUM": NaN,
      "PARAMTYP": "DERIVED",
      "PARAM": "Total Bili 1.5 x ULN and Transaminase 1.5 x ULN",
      "PARAMCD": "HYLAW",
      "PARAMN": 6.0,
      "PARCAT1": "HYLAW",
      "AVAL": 5.397605346934028e-79,
      "BASE": 5.397605346934028e-79,
      "A1LO": NaN,
      "A1HI": NaN,
      "R2A1LO": NaN,
      "R2A1HI": NaN,
      "BR2A1LO": NaN,
      "BR2A1HI": NaN,
      "ABLFL": "Y",
      "SHIFT1": "Normal to Normal",
      "SHIFT1N": 1.0,
      "CRIT1": "",
      "CRIT1FL": "",
      "CRIT1FN": NaN
    },
    {
      "STUDYID": "CDISCPILOT01",
      "SUBJID": "1023",
      "USUBJID": "01-701-1023",
      "TRTP": "Placebo",
      "TRTPN": 5.397605346934028e-79,
      "TRTA": "Placebo",
      "TRTAN": 5.397605346934028e-79,
      "TRTSDT": 19210.0,
      "TRTEDT": 19237.0,
      "AGE": 64.0,
      "AGEGR1": "<65",
      "AGEGR1N": 1.0,
      "RACE": "WHITE",
      "RACEN": 1.0,
      "SEX": "M",
      "COMP24FL": "N",
      "DSRAEFL": "Y",
      "SAFFL": "Y",
      "AVISIT": "Week 2",
      "AVISITN": 2.0,
      "ADY": 23.0,
      "ADT": 19232.0,
      "VISIT": "WEEK 2",
      "VISITNUM": 4.0,
      "PARAMTYP": "",
      "PARAM": "Alanine Aminotransferase (U/L)",
      "PARAMCD": "ALT",
      "PARAMN": 1.0,
      "PARCAT1": "CHEM",
      "AVAL": 30.0,
      "BASE": 23.0,
      "A1LO": 6.0,
      "A1HI": 43.0,
      "R2A1LO": 5.0,
      "R2A1HI": 0.6976744186046512,
      "BR2A1LO": 3.8333333333333335,
      "BR2A1HI": 0.5348837209302325,
      "ABLFL": "",
      "SHIFT1": "",
      "SHIFT1N": NaN,
      "CRIT1": "R2A1HI > 1.5",
      "CRIT1FL": "N",
      "CRIT1FN": 5.397605346934028e-79
    },
    {
      "STUDYID": "CDISCPILOT01",
      "SUBJID": "1023",
      "USUBJID": "01-701-1023",
      "TRTP": "Placebo",
      "TRTPN": 5.397605346934028e-79,
      "TRTA": "Placebo",
      "TRTAN": 5.397605346934028e-79,
      "TRTSDT": 19210.0,
      "TRTEDT": 19237.0,
      "AGE": 64.0,
      "AGEGR1": "<65",
      "AGEGR1N": 1.0,
      "RACE": "WHITE",
      "RACEN": 1.0,
      "SEX": "M",
      "COMP24FL": "N",
      "DSRAEFL": "Y",
      "SAFFL": "Y",
      "AVISIT": "Week 2",
      "AVISITN": 2.0,
      "ADY": 23.0,
      "ADT": 19232.0,
      "VISIT": "WEEK 2",
      "VISITNUM": 4.0,
      "PARAMTYP": "",
      "PARAM": "Aspartate Aminotransferase (U/L)",
      "PARAMCD": "AST",
      "PARAMN": 2.0,
      "PARCAT1": "CHEM",
      "AVAL": 25.0,
      "BASE": 21.0,
      "A1LO": 11.0,
      "A1HI": 36.0,
      "R2A1LO": 2.272727272727273,
      "R2A1HI": 0.6944444444444444,
      "BR2A1LO": 1.9090909090909092,
      "BR2A1HI": 0.5833333333333334,
      "ABLFL": "",
      "SHIFT1": "",
      "SHIFT1N": NaN,
      "CRIT1": "R2A1HI > 1.5",
      "CRIT1FL": "N",
      "CRIT1FN": 5.397605346934028e-79
    },
    {
      "STUDYID": "CDISCPILOT01",
      "SUBJID": "1023",
      "USUBJID": "01-701-1023",
      "TRTP": "Placebo",
      "TRTPN": 5.397605346934028e-79,
      "TRTA": "Placebo",
      "TRTAN": 5.397605346934028e-79,
      "TRTSDT": 19210.0,
      "TRTEDT": 19237.0,
      "AGE": 64.0,
      "AGEGR1": "<65",
      "AGEGR1N": 1.0,
      "RACE": "WHITE",
      "RACEN": 1.0,
      "SEX": "M",
      "COMP24FL": "N",
      "DSRAEFL": "Y",
      "SAFFL": "Y",
      "AVISIT": "Week 2",
      "AVISITN": 2.0,
      "ADY": 23.0,
      "ADT": 19232.0,
      "VISIT": "WEEK 2",
      "VISITNUM": 4.0,
      "PARAMTYP": "",
      "PARAM": "Bilirubin (umol/L)",
      "PARAMCD": "BILI",
      "PARAMN": 3.0,
      "PARCAT1": "CHEM",
      "AVAL": 6.84,
      "BASE": 11.969999999999999,
      "A1LO": 3.0,
      "A1HI": 21.0,
      "R2A1LO": 2.28,
      "R2A1HI": 0.32571428571428573,
      "BR2A1LO": 3.9899999999999998,
      "BR2A1HI": 0.57,
      "ABLFL": "",
      "SHIFT1": "",
      "SHIFT1N": NaN,
      "CRIT1": "R2A1HI > 1.5",
      "CRIT1FL": "N",
      "CRIT1FN": 5.397605346934028e-79
    },
    {
      "STUDYID": "CDISCPILOT01",
      "SUBJID": "1023",
      "USUBJID": "01-701-1023",
      "TRTP": "Placebo",
      "TRTPN": 5.397605346934028e-79,
      "TRTA": "Placebo",
      "TRTAN": 5.397605346934028e-79,
      "TRTSDT": 19210.0,
      "TRTEDT": 19237.0,
      "AGE": 64.0,
      "AGEGR1": "<65",
      "AGEGR1N": 1.0,
      "RACE": "WHITE",
      "RACEN": 1.0,
      "SEX": "M",
      "COMP24FL": "N",
      "DSRAEFL": "Y",
      "SAFFL": "Y",
      "AVISIT": "Week 2",
      "AVISITN": 2.0,
      "ADY": NaN,
      "ADT": NaN,
      "VISIT": "",
      "VISITNUM": NaN,
      "PARAMTYP": "DERIVED",
      "PARAM": "Bilirubin 1.5 x ULN",
      "PARAMCD": "BILIHY",
      "PARAMN": 4.0,
      "PARCAT1": "HYLAW",
      "AVAL": 5.397605346934028e-79,
      "BASE": 5.397605346934028e-79,
      "A1LO": NaN,
      "A1HI": NaN,
      "R2A1LO": NaN,
      "R2A1HI": NaN,
      "BR2A1LO": NaN,
      "BR2A1HI": NaN,
      "ABLFL": "",
      "SHIFT1": "Normal to Normal",
      "SHIFT1N": 1.0,
      "CRIT1": "",
      "CRIT1FL": "",
      "CRIT1FN": NaN
    },
    {
      "STUDYID": "CDISCPILOT01",
      "SUBJID": "1023",
      "USUBJID": "01-701-1023",
      "TRTP": "Placebo",
      "TRTPN": 5.397605346934028e-79,
      "TRTA": "Placebo",
      "TRTAN": 5.397605346934028e-79,
      "TRTSDT": 19210.0,
      "TRTEDT": 19237.0,
      "AGE": 64.0,
      "AGEGR1": "<65",
      "AGEGR1N": 1.0,
      "RACE": "WHITE",
      "RACEN": 1.0,
      "SEX": "M",
      "COMP24FL": "N",
      "DSRAEFL": "Y",
      "SAFFL": "Y",
      "AVISIT": "Week 2",
      "AVISITN": 2.0,
      "ADY": NaN,
      "ADT": NaN,
      "VISIT": "",
      "VISITNUM": NaN,
      "PARAMTYP": "DERIVED",
      "PARAM": "Transaminase 1.5 x ULN",
      "PARAMCD": "TRANSHY",
      "PARAMN": 5.0,
      "PARCAT1": "HYLAW",
      "AVAL": 5.397605346934028e-79,
      "BASE": 5.397605346934028e-79,
      "A1LO": NaN,
      "A1HI": NaN,
      "R2A1LO": NaN,
      "R2A1HI": NaN,
      "BR2A1LO": NaN,
      "BR2A1HI": NaN,
      "ABLFL": "",
      "SHIFT1": "Normal to Normal",
      "SHIFT1N": 1.0,
      "CRIT1": "",
      "CRIT1FL": "",
      "CRIT1FN": NaN
    },
    {
      "STUDYID": "CDISCPILOT01",
      "SUBJID": "1023",
      "USUBJID": "01-701-1023",
      "TRTP": "Placebo",
      "TRTPN": 5.397605346934028e-79,
      "TRTA": "Placebo",
      "TRTAN": 5.397605346934028e-79,
      "TRTSDT": 19210.0,
      "TRTEDT": 19237.0,
      "AGE": 64.0,
      "AGEGR1": "<65",
      "AGEGR1N": 1.0,
      "RACE": "WHITE",
      "RACEN": 1.0,
      "SEX": "M",
      "COMP24FL": "N",
      "DSRAEFL": "Y",
      "SAFFL": "Y",
      "AVISIT": "Week 2",
      "AVISITN": 2.0,
      "ADY": NaN,
      "ADT": NaN,
      "VISIT": "",
      "VISITNUM": NaN,
      "PARAMTYP": "DERIVED",
      "PARAM": "Total Bili 1.5 x ULN and Transaminase 1.5 x ULN",
      "PARAMCD": "HYLAW",
      "PARAMN": 6.0,
      "PARCAT1": "HYLAW",
      "AVAL": 5.397605346934028e-79,
      "BASE": 5.397605346934028e-79,
      "A1LO": NaN,
      "A1HI": NaN,
      "R2A1LO": NaN,
      "R2A1HI": NaN,
      "BR2A1LO": NaN,
      "BR2A1HI": NaN,
      "ABLFL": "",
      "SHIFT1": "Normal to Normal",
      "SHIFT1N": 1.0,
      "CRIT1": "",
      "CRIT1FL": "",
      "CRIT1FN": NaN
    },
    {
      "STUDYID": "CDISCPILOT01",
      "SUBJID": "1023",
      "USUBJID": "01-701-1023",
      "TRTP": "Placebo",
      "TRTPN": 5.397605346934028e-79,
      "TRTA": "Placebo",
      "TRTAN": 5.397605346934028e-79,
      "TRTSDT": 19210.0,
      "TRTEDT": 19237.0,
      "AGE": 64.0,
      "AGEGR1": "<65",
      "AGEGR1N": 1.0,
      "RACE": "WHITE",
      "RACEN": 1.0,
      "SEX": "M",
      "COMP24FL": "N",
      "DSRAEFL": "Y",
      "SAFFL": "Y",
      "AVISIT": "Week 4",
      "AVISITN": 4.0,
      "ADY": 29.0,
      "ADT": 19238.0,
      "VISIT": "WEEK 4",
      "VISITNUM": 5.0,
      "PARAMTYP": "",
      "PARAM": "Alanine Aminotransferase (U/L)",
      "PARAMCD": "ALT",
      "PARAMN": 1.0,
      "PARCAT1": "CHEM",
      "AVAL": 38.0,
      "BASE": 23.0,
      "A1LO": 6.0,
      "A1HI": 43.0,
      "R2A1LO": 6.333333333333333,
      "R2A1HI": 0.8837209302325582,
      "BR2A1LO": 3.8333333333333335,
      "BR2A1HI": 0.5348837209302325,
      "ABLFL": "",
      "SHIFT1": "",
      "SHIFT1N": NaN,
      "CRIT1": "R2A1HI > 1.5",
      "CRIT1FL": "N",
      "CRIT1FN": 5.397605346934028e-79
    },
    {
      "STUDYID": "CDISCPILOT01",
      "SUBJID": "1023",
      "USUBJID": "01-701-1023",
      "TRTP": "Placebo",
      "TRTPN": 5.397605346934028e-79,
      "TRTA": "Placebo",
      "TRTAN": 5.397605346934028e-79,
      "TRTSDT": 19210.0,
      "TRTEDT": 19237.0,
      "AGE": 64.0,
      "AGEGR1": "<65",
      "AGEGR1N": 1.0,
      "RACE": "WHITE",
      "RACEN": 1.0,
      "SEX": "M",
      "COMP24FL": "N",
      "DSRAEFL": "Y",
      "SAFFL": "Y",
      "AVISIT": "Week 4",
      "AVISITN": 4.0,
      "ADY": 29.0,
      "ADT": 19238.0,
      "VISIT": "WEEK 4",
      "VISITNUM": 5.0,
      "PARAMTYP": "",
      "PARAM": "Aspartate Aminotransferase (U/L)",
      "PARAMCD": "AST",
      "PARAMN": 2.0,
      "PARCAT1": "CHEM",
      "AVAL": 30.0,
      "BASE": 21.0,
      "A1LO": 11.0,
      "A1HI": 36.0,
      "R2A1LO": 2.727272727272727,
      "R2A1HI": 0.8333333333333334,
      "BR2A1LO": 1.9090909090909092,
      "BR2A1HI": 0.5833333333333334,
      "ABLFL": "",
      "SHIFT1": "",
      "SHIFT1N": NaN,
      "CRIT1": "R2A1HI > 1.5",
      "CRIT1FL": "N",
      "CRIT1FN": 5.397605346934028e-79
    },
    {
      "STUDYID": "CDISCPILOT01",
      "SUBJID": "1023",
      "USUBJID": "01-701-1023",
      "TRTP": "Placebo",
      "TRTPN": 5.397605346934028e-79,
      "TRTA": "Placebo",
      "TRTAN": 5.397605346934028e-79,
      "TRTSDT": 19210.0,
      "TRTEDT": 19237.0,
      "AGE": 64.0,
      "AGEGR1": "<65",
      "AGEGR1N": 1.0,
      "RACE": "WHITE",
      "RACEN": 1.0,
      "SEX": "M",
      "COMP24FL": "N",
      "DSRAEFL": "Y",
      "SAFFL": "Y",
      "AVISIT": "Week 4",
      "AVISITN": 4.0,
      "ADY": 29.0,
      "ADT": 19238.0,
      "VISIT": "WEEK 4",
      "VISITNUM": 5.0,
      "PARAMTYP": "",
      "PARAM": "Bilirubin (umol/L)",
      "PARAMCD": "BILI",
      "PARAMN": 3.0,
      "PARCAT1": "CHEM",
      "AVAL": 8.549999999999999,
      "BASE": 11.969999999999999,
      "A1LO": 3.0,
      "A1HI": 21.0,
      "R2A1LO": 2.8499999999999996,
      "R2A1HI": 0.4071428571428571,
      "BR2A1LO": 3.9899999999999998,
      "BR2A1HI": 0.57,
      "ABLFL": "",
      "SHIFT1": "",
      "SHIFT1N": NaN,
      "CRIT1": "R2A1HI > 1.5",
      "CRIT1FL": "N",
      "CRIT1FN": 5.397605346934028e-79
    },
    {
      "STUDYID": "CDISCPILOT01",
      "SUBJID": "1023",
      "USUBJID": "01-701-1023",
      "TRTP": "Placebo",
      "TRTPN": 5.397605346934028e-79,
      "TRTA": "Placebo",
      "TRTAN": 5.397605346934028e-79,
      "TRTSDT": 19210.0,
      "TRTEDT": 19237.0,
      "AGE": 64.0,
      "AGEGR1": "<65",
      "AGEGR1N": 1.0,
      "RACE": "WHITE",
      "RACEN": 1.0,
      "SEX": "M",
      "COMP24FL": "N",
      "DSRAEFL": "Y",
      "SAFFL": "Y",
      "AVISIT": "Week 4",
      "AVISITN": 4.0,
      "ADY": NaN,
      "ADT": NaN,
      "VISIT": "",
      "VISITNUM": NaN,
      "PARAMTYP": "DERIVED",
      "PARAM": "Bilirubin 1.5 x ULN",
      "PARAMCD": "BILIHY",
      "PARAMN": 4.0,
      "PARCAT1": "HYLAW",
      "AVAL": 5.397605346934028e-79,
      "BASE": 5.397605346934028e-79,
      "A1LO": NaN,
      "A1HI": NaN,
      "R2A1LO": NaN,
      "R2A1HI": NaN,
      "BR2A1LO": NaN,
      "BR2A1HI": NaN,
      "ABLFL": "",
      "SHIFT1": "Normal to Normal",
      "SHIFT1N": 1.0,
      "CRIT1": "",
      "CRIT1FL": "",
      "CRIT1FN": NaN
    },
    {
      "STUDYID": "CDISCPILOT01",
      "SUBJID": "1023",
      "USUBJID": "01-701-1023",
      "TRTP": "Placebo",
      "TRTPN": 5.397605346934028e-79,
      "TRTA": "Placebo",
      "TRTAN": 5.397605346934028e-79,
      "TRTSDT": 19210.0,
      "TRTEDT": 19237.0,
      "AGE": 64.0,
      "AGEGR1": "<65",
      "AGEGR1N": 1.0,
      "RACE": "WHITE",
      "RACEN": 1.0,
      "SEX": "M",
      "COMP24FL": "N",
      "DSRAEFL": "Y",
      "SAFFL": "Y",
      "AVISIT": "Week 4",
      "AVISITN": 4.0,
      "ADY": NaN,
      "ADT": NaN,
      "VISIT": "",
      "VISITNUM": NaN,
      "PARAMTYP": "DERIVED",
      "PARAM": "Transaminase 1.5 x ULN",
      "PARAMCD": "TRANSHY",
      "PARAMN": 5.0,
      "PARCAT1": "HYLAW",
      "AVAL": 5.397605346934028e-79,
      "BASE": 5.397605346934028e-79,
      "A1LO": NaN,
      "A1HI": NaN,
      "R2A1LO": NaN,
      "R2A1HI": NaN,
      "BR2A1LO": NaN,
      "BR2A1HI": NaN,
      "ABLFL": "",
      "SHIFT1": "Normal to Normal",
      "SHIFT1N": 1.0,
      "CRIT1": "",
      "CRIT1FL": "",
      "CRIT1FN": NaN
    },
    {
      "STUDYID": "CDISCPILOT01",
      "SUBJID": "1023",
      "USUBJID": "01-701-1023",
      "TRTP": "Placebo",
      "TRTPN": 5.397605346934028e-79,
      "TRTA": "Placebo",
      "TRTAN": 5.397605346934028e-79,
      "TRTSDT": 19210.0,
      "TRTEDT": 19237.0,
      "AGE": 64.0,
      "AGEGR1": "<65",
      "AGEGR1N": 1.0,
      "RACE": "WHITE",
      "RACEN": 1.0,
      "SEX": "M",
      "COMP24FL": "N",
      "DSRAEFL": "Y",
      "SAFFL": "Y",
      "AVISIT": "Week 4",
      "AVISITN": 4.0,
      "ADY": NaN,
      "ADT": NaN,
      "VISIT": "",
      "VISITNUM": NaN,
      "PARAMTYP": "DERIVED",
      "PARAM": "Total Bili 1.5 x ULN and Transaminase 1.5 x ULN",
      "PARAMCD": "HYLAW",
      "PARAMN": 6.0,
      "PARCAT1": "HYLAW",
      "AVAL": 5.397605346934028e-79,
      "BASE": 5.397605346934028e-79,
      "A1LO": NaN,
      "A1HI": NaN,
      "R2A1LO": NaN,
      "R2A1HI": NaN,
      "BR2A1LO": NaN,
      "BR2A1HI": NaN,
      "ABLFL": "",
      "SHIFT1": "Normal to Normal",
      "SHIFT1N": 1.0,
      "CRIT1": "",
      "CRIT1FL": "",
      "CRIT1FN": NaN
    },
    {
      "STUDYID": "CDISCPILOT01",
      "SUBJID": "1028",
      "USUBJID": "01-701-1028",
      "TRTP": "Xanomeline High Dose",
      "TRTPN": 81.0,
      "TRTA": "Xanomeline High Dose",
      "TRTAN": 81.0,
      "TRTSDT": 19558.0,
      "TRTEDT": 19737.0,
      "AGE": 71.0,
      "AGEGR1": "65-80",
      "AGEGR1N": 2.0,
      "RACE": "WHITE",
      "RACEN": 1.0,
      "SEX": "M",
      "COMP24FL": "Y",
      "DSRAEFL": "",
      "SAFFL": "Y",
      "AVISIT": "Baseline",
      "AVISITN": 5.397605346934028e-79,
      "ADY": -8.0,
      "ADT": 19550.0,
      "VISIT": "SCREENING 1",
      "VISITNUM": 1.0,
      "PARAMTYP": "",
      "PARAM": "Alanine Aminotransferase (U/L)",
      "PARAMCD": "ALT",
      "PARAMN": 1.0,
      "PARCAT1": "CHEM",
      "AVAL": 26.0,
      "BASE": 26.0,
      "A1LO": 6.0,
      "A1HI": 35.0,
      "R2A1LO": 4.333333333333333,
      "R2A1HI": 0.7428571428571429,
      "BR2A1LO": 4.333333333333333,
      "BR2A1HI": 0.7428571428571429,
      "ABLFL": "Y",
      "SHIFT1": "",
      "SHIFT1N": NaN,
      "CRIT1": "R2A1HI > 1.5",
      "CRIT1FL": "N",
      "CRIT1FN": 5.397605346934028e-79
    },
    {
      "STUDYID": "CDISCPILOT01",
      "SUBJID": "1028",
      "USUBJID": "01-701-1028",
      "TRTP": "Xanomeline High Dose",
      "TRTPN": 81.0,
      "TRTA": "Xanomeline High Dose",
      "TRTAN": 81.0,
      "TRTSDT": 19558.0,
      "TRTEDT": 19737.0,
      "AGE": 71.0,
      "AGEGR1": "65-80",
      "AGEGR1N": 2.0,
      "RACE": "WHITE",
      "RACEN": 1.0,
      "SEX": "M",
      "COMP24FL": "Y",
      "DSRAEFL": "",
      "SAFFL": "Y",
      "AVISIT": "Baseline",
      "AVISITN": 5.397605346934028e-79,
      "ADY": -8.0,
      "ADT": 19550.0,
      "VISIT": "SCREENING 1",
      "VISITNUM": 1.0,
      "PARAMTYP": "",
      "PARAM": "Aspartate Aminotransferase (U/L)",
      "PARAMCD": "AST",
      "PARAMN": 2.0,
      "PARCAT1": "CHEM",
      "AVAL": 24.0,
      "BASE": 24.0,
      "A1LO": 11.0,
      "A1HI": 36.0,
      "R2A1LO": 2.1818181818181817,
      "R2A1HI": 0.6666666666666666,
      "BR2A1LO": 2.1818181818181817,
      "BR2A1HI": 0.6666666666666666,
      "ABLFL": "Y",
      "SHIFT1": "",
      "SHIFT1N": NaN,
      "CRIT1": "R2A1HI > 1.5",
      "CRIT1FL": "N",
      "CRIT1FN": 5.397605346934028e-79
    },
    {
      "STUDYID": "CDISCPILOT01",
      "SUBJID": "1028",
      "USUBJID": "01-701-1028",
      "TRTP": "Xanomeline High Dose",
      "TRTPN": 81.0,
      "TRTA": "Xanomeline High Dose",
      "TRTAN": 81.0,
      "TRTSDT": 19558.0,
      "TRTEDT": 19737.0,
      "AGE": 71.0,
      "AGEGR1": "65-80",
      "AGEGR1N": 2.0,
      "RACE": "WHITE",
      "RACEN": 1.0,
      "SEX": "M",
      "COMP24FL": "Y",
      "DSRAEFL": "",
      "SAFFL": "Y",
      "AVISIT": "Baseline",
      "AVISITN": 5.397605346934028e-79,
      "ADY": -8.0,
      "ADT": 19550.0,
      "VISIT": "SCREENING 1",
      "VISITNUM": 1.0,
      "PARAMTYP": "",
      "PARAM": "Bilirubin (umol/L)",
      "PARAMCD": "BILI",
      "PARAMN": 3.0,
      "PARCAT1": "CHEM",
      "AVAL": 18.81,
      "BASE": 18.81,
      "A1LO": 3.0,
      "A1HI": 21.0,
      "R2A1LO": 6.27,
      "R2A1HI": 0.8957142857142857,
      "BR2A1LO": 6.27,
      "BR2A1HI": 0.8957142857142857,
      "ABLFL": "Y",
      "SHIFT1": "",
      "SHIFT1N": NaN,
      "CRIT1": "R2A1HI > 1.5",
      "CRIT1FL": "N",
      "CRIT1FN": 5.397605346934028e-79
    },
    {
      "STUDYID": "CDISCPILOT01",
      "SUBJID": "1028",
      "USUBJID": "01-701-1028",
      "TRTP": "Xanomeline High Dose",
      "TRTPN": 81.0,
      "TRTA": "Xanomeline High Dose",
      "TRTAN": 81.0,
      "TRTSDT": 19558.0,
      "TRTEDT": 19737.0,
      "AGE": 71.0,
      "AGEGR1": "65-80",
      "AGEGR1N": 2.0,
      "RACE": "WHITE",
      "RACEN": 1.0,
      "SEX": "M",
      "COMP24FL": "Y",
      "DSRAEFL": "",
      "SAFFL": "Y",
      "AVISIT": "Baseline",
      "AVISITN": 5.397605346934028e-79,
      "ADY": NaN,
      "ADT": NaN,
      "VISIT": "",
      "VISITNUM": NaN,
      "PARAMTYP": "DERIVED",
      "PARAM": "Bilirubin 1.5 x ULN",
      "PARAMCD": "BILIHY",
      "PARAMN": 4.0,
      "PARCAT1": "HYLAW",
      "AVAL": 5.397605346934028e-79,
      "BASE": 5.397605346934028e-79,
      "A1LO": NaN,
      "A1HI": NaN,
      "R2A1LO": NaN,
      "R2A1HI": NaN,
      "BR2A1LO": NaN,
      "BR2A1HI": NaN,
      "ABLFL": "Y",
      "SHIFT1": "Normal to Normal",
      "SHIFT1N": 1.0,
      "CRIT1": "",
      "CRIT1FL": "",
      "CRIT1FN": NaN
    },
    {
      "STUDYID": "CDISCPILOT01",
      "SUBJID": "1028",
      "USUBJID": "01-701-1028",
      "TRTP": "Xanomeline High Dose",
      "TRTPN": 81.0,
      "TRTA": "Xanomeline High Dose",
      "TRTAN": 81.0,
      "TRTSDT": 19558.0,
      "TRTEDT": 19737.0,
      "AGE": 71.0,
      "AGEGR1": "65-80",
      "AGEGR1N": 2.0,
      "RACE": "WHITE",
      "RACEN": 1.0,
      "SEX": "M",
      "COMP24FL": "Y",
      "DSRAEFL": "",
      "SAFFL": "Y",
      "AVISIT": "Baseline",
      "AVISITN": 5.397605346934028e-79,
      "ADY": NaN,
      "ADT": NaN,
      "VISIT": "",
      "VISITNUM": NaN,
      "PARAMTYP": "DERIVED",
      "PARAM": "Transaminase 1.5 x ULN",
      "PARAMCD": "TRANSHY",
      "PARAMN": 5.0,
      "PARCAT1": "HYLAW",
      "AVAL": 5.397605346934028e-79,
      "BASE": 5.397605346934028e-79,
      "A1LO": NaN,
      "A1HI": NaN,
      "R2A1LO": NaN,
      "R2A1HI": NaN,
      "BR2A1LO": NaN,
      "BR2A1HI": NaN,
      "ABLFL": "Y",
      "SHIFT1": "Normal to Normal",
      "SHIFT1N": 1.0,
      "CRIT1": "",
      "CRIT1FL": "",
      "CRIT1FN": NaN
    },
    {
      "STUDYID": "CDISCPILOT01",
      "SUBJID": "1028",
      "USUBJID": "01-701-1028",
      "TRTP": "Xanomeline High Dose",
      "TRTPN": 81.0,
      "TRTA": "Xanomeline High Dose",
      "TRTAN": 81.0,
      "TRTSDT": 19558.0,
      "TRTEDT": 19737.0,
      "AGE": 71.0,
      "AGEGR1": "65-80",
      "AGEGR1N": 2.0,
      "RACE": "WHITE",
      "RACEN": 1.0,
      "SEX": "M",
      "COMP24FL": "Y",
      "DSRAEFL": "",
      "SAFFL": "Y",
      "AVISIT": "Baseline",
      "AVISITN": 5.397605346934028e-79,
      "ADY": NaN,
      "ADT": NaN,
      "VISIT": "",
      "VISITNUM": NaN,
      "PARAMTYP": "DERIVED",
      "PARAM": "Total Bili 1.5 x ULN and Transaminase 1.5 x ULN",
      "PARAMCD": "HYLAW",
      "PARAMN": 6.0,
      "PARCAT1": "HYLAW",
      "AVAL": 5.397605346934028e-79,
      "BASE": 5.397605346934028e-79,
      "A1LO": NaN,
      "A1HI": NaN,
      "R2A1LO": NaN,
      "R2A1HI": NaN,
      "BR2A1LO": NaN,
      "BR2A1HI": NaN,
      "ABLFL": "Y",
      "SHIFT1": "Normal to Normal",
      "SHIFT1N": 1.0,
      "CRIT1": "",
      "CRIT1FL": "",
      "CRIT1FN": NaN
    },
    {
      "STUDYID": "CDISCPILOT01",
      "SUBJID": "1028",
      "USUBJID": "01-701-1028",
      "TRTP": "Xanomeline High Dose",
      "TRTPN": 81.0,
      "TRTA": "Xanomeline High Dose",
      "TRTAN": 81.0,
      "TRTSDT": 19558.0,
      "TRTEDT": 19737.0,
      "AGE": 71.0,
      "AGEGR1": "65-80",
      "AGEGR1N": 2.0,
      "RACE": "WHITE",
      "RACEN": 1.0,
      "SEX": "M",
      "COMP24FL": "Y",
      "DSRAEFL": "",
      "SAFFL": "Y",
      "AVISIT": "Week 2",
      "AVISITN": 2.0,
      "ADY": 14.0,
      "ADT": 19571.0,
      "VISIT": "WEEK 2",
      "VISITNUM": 4.0,
      "PARAMTYP": "",
      "PARAM": "Alanine Aminotransferase (U/L)",
      "PARAMCD": "ALT",
      "PARAMN": 1.0,
      "PARCAT1": "CHEM",
      "AVAL": 30.0,
      "BASE": 26.0,
      "A1LO": 6.0,
      "A1HI": 35.0,
      "R2A1LO": 5.0,
      "R2A1HI": 0.8571428571428571,
      "BR2A1LO": 4.333333333333333,
      "BR2A1HI": 0.7428571428571429,
      "ABLFL": "",
      "SHIFT1": "",
      "SHIFT1N": NaN,
      "CRIT1": "R2A1HI > 1.5",
      "CRIT1FL": "N",
      "CRIT1FN": 5.397605346934028e-79
    },
    {
      "STUDYID": "CDISCPILOT01",
      "SUBJID": "1028",
      "USUBJID": "01-701-1028",
      "TRTP": "Xanomeline High Dose",
      "TRTPN": 81.0,
      "TRTA": "Xanomeline High Dose",
      "TRTAN": 81.0,
      "TRTSDT": 19558.0,
      "TRTEDT": 19737.0,
      "AGE": 71.0,
      "AGEGR1": "65-80",
      "AGEGR1N": 2.0,
      "RACE": "WHITE",
      "RACEN": 1.0,
      "SEX": "M",
      "COMP24FL": "Y",
      "DSRAEFL": "",
      "SAFFL": "Y",
      "AVISIT": "Week 2",
      "AVISITN": 2.0,
      "ADY": 14.0,
      "ADT": 19571.0,
      "VISIT": "WEEK 2",
      "VISITNUM": 4.0,
      "PARAMTYP": "",
      "PARAM": "Aspartate Aminotransferase (U/L)",
      "PARAMCD": "AST",
      "PARAMN": 2.0,
      "PARCAT1": "CHEM",
      "AVAL": 23.0,
      "BASE": 24.0,
      "A1LO": 11.0,
      "A1HI": 36.0,
      "R2A1LO": 2.090909090909091,
      "R2A1HI": 0.6388888888888888,
      "BR2A1LO": 2.1818181818181817,
      "BR2A1HI": 0.6666666666666666,
      "ABLFL": "",
      "SHIFT1": "",
      "SHIFT1N": NaN,
      "CRIT1": "R2A1HI > 1.5",
      "CRIT1FL": "N",
      "CRIT1FN": 5.397605346934028e-79
    },
    {
      "STUDYID": "CDISCPILOT01",
      "SUBJID": "1028",
      "USUBJID": "01-701-1028",
      "TRTP": "Xanomeline High Dose",
      "TRTPN": 81.0,
      "TRTA": "Xanomeline High Dose",
      "TRTAN": 81.0,
      "TRTSDT": 19558.0,
      "TRTEDT": 19737.0,
      "AGE": 71.0,
      "AGEGR1": "65-80",
      "AGEGR1N": 2.0,
      "RACE": "WHITE",
      "RACEN": 1.0,
      "SEX": "M",
      "COMP24FL": "Y",
      "DSRAEFL": "",
      "SAFFL": "Y",
      "AVISIT": "Week 2",
      "AVISITN": 2.0,
      "ADY": 14.0,
      "ADT": 19571.0,
      "VISIT": "WEEK 2",
      "VISITNUM": 4.0,
      "PARAMTYP": "",
      "PARAM": "Bilirubin (umol/L)",
      "PARAMCD": "BILI",
      "PARAMN": 3.0,
      "PARCAT1": "CHEM",
      "AVAL": 11.969999999999999,
      "BASE": 18.81,
      "A1LO": 3.0,
      "A1HI": 21.0,
      "R2A1LO": 3.9899999999999998,
      "R2A1HI": 0.57,
      "BR2A1LO": 6.27,
      "BR2A1HI": 0.8957142857142857,
      "ABLFL": "",
      "SHIFT1": "",
      "SHIFT1N": NaN,
      "CRIT1": "R2A1HI > 1.5",
      "CRIT1FL": "N",
      "CRIT1FN": 5.397605346934028e-79
    },
    {
      "STUDYID": "CDISCPILOT01",
      "SUBJID": "1028",
      "USUBJID": "01-701-1028",
      "TRTP": "Xanomeline High Dose",
      "TRTPN": 81.0,
      "TRTA": "Xanomeline High Dose",
      "TRTAN": 81.0,
      "TRTSDT": 19558.0,
      "TRTEDT": 19737.0,
      "AGE": 71.0,
      "AGEGR1": "65-80",
      "AGEGR1N": 2.0,
      "RACE": "WHITE",
      "RACEN": 1.0,
      "SEX": "M",
      "COMP24FL": "Y",
      "DSRAEFL": "",
      "SAFFL": "Y",
      "AVISIT": "Week 2",
      "AVISITN": 2.0,
      "ADY": NaN,
      "ADT": NaN,
      "VISIT": "",
      "VISITNUM": NaN,
      "PARAMTYP": "DERIVED",
      "PARAM": "Bilirubin 1.5 x ULN",
      "PARAMCD": "BILIHY",
      "PARAMN": 4.0,
      "PARCAT1": "HYLAW",
      "AVAL": 5.397605346934028e-79,
      "BASE": 5.397605346934028e-79,
      "A1LO": NaN,
      "A1HI": NaN,
      "R2A1LO": NaN,
      "R2A1HI": NaN,
      "BR2A1LO": NaN,
      "BR2A1HI": NaN,
      "ABLFL": "",
      "SHIFT1": "Normal to Normal",
      "SHIFT1N": 1.0,
      "CRIT1": "",
      "CRIT1FL": "",
      "CRIT1FN": NaN
    },
    {
      "STUDYID": "CDISCPILOT01",
      "SUBJID": "1028",
      "USUBJID": "01-701-1028",
      "TRTP": "Xanomeline High Dose",
      "TRTPN": 81.0,
      "TRTA": "Xanomeline High Dose",
      "TRTAN": 81.0,
      "TRTSDT": 19558.0,
      "TRTEDT": 19737.0,
      "AGE": 71.0,
      "AGEGR1": "65-80",
      "AGEGR1N": 2.0,
      "RACE": "WHITE",
      "RACEN": 1.0,
      "SEX": "M",
      "COMP24FL": "Y",
      "DSRAEFL": "",
      "SAFFL": "Y",
      "AVISIT": "Week 2",
      "AVISITN": 2.0,
      "ADY": NaN,
      "ADT": NaN,
      "VISIT": "",
      "VISITNUM": NaN,
      "PARAMTYP": "DERIVED",
      "PARAM": "Transaminase 1.5 x ULN",
      "PARAMCD": "TRANSHY",
      "PARAMN": 5.0,
      "PARCAT1": "HYLAW",
      "AVAL": 5.397605346934028e-79,
      "BASE": 5.397605346934028e-79,
      "A1LO": NaN,
      "A1HI": NaN,
      "R2A1LO": NaN,
      "R2A1HI": NaN,
      "BR2A1LO": NaN,
      "BR2A1HI": NaN,
      "ABLFL": "",
      "SHIFT1": "Normal to Normal",
      "SHIFT1N": 1.0,
      "CRIT1": "",
      "CRIT1FL": "",
      "CRIT1FN": NaN
    },
    {
      "STUDYID": "CDISCPILOT01",
      "SUBJID": "1028",
      "USUBJID": "01-701-1028",
      "TRTP": "Xanomeline High Dose",
      "TRTPN": 81.0,
      "TRTA": "Xanomeline High Dose",
      "TRTAN": 81.0,
      "TRTSDT": 19558.0,
      "TRTEDT": 19737.0,
      "AGE": 71.0,
      "AGEGR1": "65-80",
      "AGEGR1N": 2.0,
      "RACE": "WHITE",
      "RACEN": 1.0,
      "SEX": "M",
      "COMP24FL": "Y",
      "DSRAEFL": "",
      "SAFFL": "Y",
      "AVISIT": "Week 2",
      "AVISITN": 2.0,
      "ADY": NaN,
      "ADT": NaN,
      "VISIT": "",
      "VISITNUM": NaN,
      "PARAMTYP": "DERIVED",
      "PARAM": "Total Bili 1.5 x ULN and Transaminase 1.5 x ULN",
      "PARAMCD": "HYLAW",
      "PARAMN": 6.0,
      "PARCAT1": "HYLAW",
      "AVAL": 5.397605346934028e-79,
      "BASE": 5.397605346934028e-79,
      "A1LO": NaN,
      "A1HI": NaN,
      "R2A1LO": NaN,
      "R2A1HI": NaN,
      "BR2A1LO": NaN,
      "BR2A1HI": NaN,
      "ABLFL": "",
      "SHIFT1": "Normal to Normal",
      "SHIFT1N": 1.0,
      "CRIT1": "",
      "CRIT1FL": "",
      "CRIT1FN": NaN
    },
    {
      "STUDYID": "CDISCPILOT01",
      "SUBJID": "1028",
      "USUBJID": "01-701-1028",
      "TRTP": "Xanomeline High Dose",
      "TRTPN": 81.0,
      "TRTA": "Xanomeline High Dose",
      "TRTAN": 81.0,
      "TRTSDT": 19558.0,
      "TRTEDT": 19737.0,
      "AGE": 71.0,
      "AGEGR1": "65-80",
      "AGEGR1N": 2.0,
      "RACE": "WHITE",
      "RACEN": 1.0,
      "SEX": "M",
      "COMP24FL": "Y",
      "DSRAEFL": "",
      "SAFFL": "Y",
      "AVISIT": "Week 4",
      "AVISITN": 4.0,
      "ADY": 27.0,
      "ADT": 19584.0,
      "VISIT": "WEEK 4",
      "VISITNUM": 5.0,
      "PARAMTYP": "",
      "PARAM": "Alanine Aminotransferase (U/L)",
      "PARAMCD": "ALT",
      "PARAMN": 1.0,
      "PARCAT1": "CHEM",
      "AVAL": 29.0,
      "BASE": 26.0,
      "A1LO": 6.0,
      "A1HI": 35.0,
      "R2A1LO": 4.833333333333333,
      "R2A1HI": 0.8285714285714286,
      "BR2A1LO": 4.333333333333333,
      "BR2A1HI": 0.7428571428571429,
      "ABLFL": "",
      "SHIFT1": "",
      "SHIFT1N": NaN,
      "CRIT1": "R2A1HI > 1.5",
      "CRIT1FL": "N",
      "CRIT1FN": 5.397605346934028e-79
    },
    {
      "STUDYID": "CDISCPILOT01",
      "SUBJID": "1028",
      "USUBJID": "01-701-1028",
      "TRTP": "Xanomeline High Dose",
      "TRTPN": 81.0,
      "TRTA": "Xanomeline High Dose",
      "TRTAN": 81.0,
      "TRTSDT": 19558.0,
      "TRTEDT": 19737.0,
      "AGE": 71.0,
      "AGEGR1": "65-80",
      "AGEGR1N": 2.0,
      "RACE": "WHITE",
      "RACEN": 1.0,
      "SEX": "M",
      "COMP24FL": "Y",
      "DSRAEFL": "",
      "SAFFL": "Y",
      "AVISIT": "Week 4",
      "AVISITN": 4.0,
      "ADY": 27.0,
      "ADT": 19584.0,
      "VISIT": "WEEK 4",
      "VISITNUM": 5.0,
      "PARAMTYP": "",
      "PARAM": "Aspartate Aminotransferase (U/L)",
      "PARAMCD": "AST",
      "PARAMN": 2.0,
      "PARCAT1": "CHEM",
      "AVAL": 24.0,
      "BASE": 24.0,
      "A1LO": 11.0,
      "A1HI": 36.0,
      "R2A1LO": 2.1818181818181817,
      "R2A1HI": 0.6666666666666666,
      "BR2A1LO": 2.1818181818181817,
      "BR2A1HI": 0.6666666666666666,
      "ABLFL": "",
      "SHIFT1": "",
      "SHIFT1N": NaN,
      "CRIT1": "R2A1HI > 1.5",
      "CRIT1FL": "N",
      "CRIT1FN": 5.397605346934028e-79
    },
    {
      "STUDYID": "CDISCPILOT01",
      "SUBJID": "1028",
      "USUBJID": "01-701-1028",
      "TRTP": "Xanomeline High Dose",
      "TRTPN": 81.0,
      "TRTA": "Xanomeline High Dose",
      "TRTAN": 81.0,
      "TRTSDT": 19558.0,
      "TRTEDT": 19737.0,
      "AGE": 71.0,
      "AGEGR1": "65-80",
      "AGEGR1N": 2.0,
      "RACE": "WHITE",
      "RACEN": 1.0,
      "SEX": "M",
      "COMP24FL": "Y",
      "DSRAEFL": "",
      "SAFFL": "Y",
      "AVISIT": "Week 4",
      "AVISITN": 4.0,
      "ADY": 27.0,
      "ADT": 19584.0,
      "VISIT": "WEEK 4",
      "VISITNUM": 5.0,
      "PARAMTYP": "",
      "PARAM": "Bilirubin (umol/L)",
      "PARAMCD": "BILI",
      "PARAMN": 3.0,
      "PARCAT1": "CHEM",
      "AVAL": 13.68,
      "BASE": 18.81,
      "A1LO": 3.0,
      "A1HI": 21.0,
      "R2A1LO": 4.56,
      "R2A1HI": 0.6514285714285715,
      "BR2A1LO": 6.27,
      "BR2A1HI": 0.8957142857142857,
      "ABLFL": "",
      "SHIFT1": "",
      "SHIFT1N": NaN,
      "CRIT1": "R2A1HI > 1.5",
      "CRIT1FL": "N",
      "CRIT1FN": 5.397605346934028e-79
    },
    {
      "STUDYID": "CDISCPILOT01",
      "SUBJID": "1028",
      "USUBJID": "01-701-1028",
      "TRTP": "Xanomeline High Dose",
      "TRTPN": 81.0,
      "TRTA": "Xanomeline High Dose",
      "TRTAN": 81.0,
      "TRTSDT": 19558.0,
      "TRTEDT": 19737.0,
      "AGE": 71.0,
      "AGEGR1": "65-80",
      "AGEGR1N": 2.0,
      "RACE": "WHITE",
      "RACEN": 1.0,
      "SEX": "M",
      "COMP24FL": "Y",
      "DSRAEFL": "",
      "SAFFL": "Y",
      "AVISIT": "Week 4",
      "AVISITN": 4.0,
      "ADY": NaN,
      "ADT": NaN,
      "VISIT": "",
      "VISITNUM": NaN,
      "PARAMTYP": "DERIVED",
      "PARAM": "Bilirubin 1.5 x ULN",
      "PARAMCD": "BILIHY",
      "PARAMN": 4.0,
      "PARCAT1": "HYLAW",
      "AVAL": 5.397605346934028e-79,
      "BASE": 5.397605346934028e-79,
      "A1LO": NaN,
      "A1HI": NaN,
      "R2A1LO": NaN,
      "R2A1HI": NaN,
      "BR2A1LO": NaN,
      "BR2A1HI": NaN,
      "ABLFL": "",
      "SHIFT1": "Normal to Normal",
      "SHIFT1N": 1.0,
      "CRIT1": "",
      "CRIT1FL": "",
      "CRIT1FN": NaN
    },
    {
      "STUDYID": "CDISCPILOT01",
      "SUBJID": "1028",
      "USUBJID": "01-701-1028",
      "TRTP": "Xanomeline High Dose",
      "TRTPN": 81.0,
      "TRTA": "Xanomeline High Dose",
      "TRTAN": 81.0,
      "TRTSDT": 19558.0,
      "TRTEDT": 19737.0,
      "AGE": 71.0,
      "AGEGR1": "65-80",
      "AGEGR1N": 2.0,
      "RACE": "WHITE",
      "RACEN": 1.0,
      "SEX": "M",
      "COMP24FL": "Y",
      "DSRAEFL": "",
      "SAFFL": "Y",
      "AVISIT": "Week 4",
      "AVISITN": 4.0,
      "ADY": NaN,
      "ADT": NaN,
      "VISIT": "",
      "VISITNUM": NaN,
      "PARAMTYP": "DERIVED",
      "PARAM": "Transaminase 1.5 x ULN",
      "PARAMCD": "TRANSHY",
      "PARAMN": 5.0,
      "PARCAT1": "HYLAW",
      "AVAL": 5.397605346934028e-79,
      "BASE": 5.397605346934028e-79,
      "A1LO": NaN,
      "A1HI": NaN,
      "R2A1LO": NaN,
      "R2A1HI": NaN,
      "BR2A1LO": NaN,
      "BR2A1HI": NaN,
      "ABLFL": "",
      "SHIFT1": "Normal to Normal",
      "SHIFT1N": 1.0,
      "CRIT1": "",
      "CRIT1FL": "",
      "CRIT1FN": NaN
    },
    {
      "STUDYID": "CDISCPILOT01",
      "SUBJID": "1028",
      "USUBJID": "01-701-1028",
      "TRTP": "Xanomeline High Dose",
      "TRTPN": 81.0,
      "TRTA": "Xanomeline High Dose",
      "TRTAN": 81.0,
      "TRTSDT": 19558.0,
      "TRTEDT": 19737.0,
      "AGE": 71.0,
      "AGEGR1": "65-80",
      "AGEGR1N": 2.0,
      "RACE": "WHITE",
      "RACEN": 1.0,
      "SEX": "M",
      "COMP24FL": "Y",
      "DSRAEFL": "",
      "SAFFL": "Y",
      "AVISIT": "Week 4",
      "AVISITN": 4.0,
      "ADY": NaN,
      "ADT": NaN,
      "VISIT": "",
      "VISITNUM": NaN,
      "PARAMTYP": "DERIVED",
      "PARAM": "Total Bili 1.5 x ULN and Transaminase 1.5 x ULN",
      "PARAMCD": "HYLAW",
      "PARAMN": 6.0,
      "PARCAT1": "HYLAW",
      "AVAL": 5.397605346934028e-79,
      "BASE": 5.397605346934028e-79,
      "A1LO": NaN,
      "A1HI": NaN,
      "R2A1LO": NaN,
      "R2A1HI": NaN,
      "BR2A1LO": NaN,
      "BR2A1HI": NaN,
      "ABLFL": "",
      "SHIFT1": "Normal to Normal",
      "SHIFT1N": 1.0,
      "CRIT1": "",
      "CRIT1FL": "",
      "CRIT1FN": NaN
    },
    {
      "STUDYID": "CDISCPILOT01",
      "SUBJID": "1028",
      "USUBJID": "01-701-1028",
      "TRTP": "Xanomeline High Dose",
      "TRTPN": 81.0,
      "TRTA": "Xanomeline High Dose",
      "TRTAN": 81.0,
      "TRTSDT": 19558.0,
      "TRTEDT": 19737.0,
      "AGE": 71.0,
      "AGEGR1": "65-80",
      "AGEGR1N": 2.0,
      "RACE": "WHITE",
      "RACEN": 1.0,
      "SEX": "M",
      "COMP24FL": "Y",
      "DSRAEFL": "",
      "SAFFL": "Y",
      "AVISIT": "Week 6",
      "AVISITN": 6.0,
      "ADY": 42.0,
      "ADT": 19599.0,
      "VISIT": "WEEK 6",
      "VISITNUM": 7.0,
      "PARAMTYP": "",
      "PARAM": "Alanine Aminotransferase (U/L)",
      "PARAMCD": "ALT",
      "PARAMN": 1.0,
      "PARCAT1": "CHEM",
      "AVAL": 32.0,
      "BASE": 26.0,
      "A1LO": 6.0,
      "A1HI": 35.0,
      "R2A1LO": 5.333333333333333,
      "R2A1HI": 0.9142857142857143,
      "BR2A1LO": 4.333333333333333,
      "BR2A1HI": 0.7428571428571429,
      "ABLFL": "",
      "SHIFT1": "",
      "SHIFT1N": NaN,
      "CRIT1": "R2A1HI > 1.5",
      "CRIT1FL": "N",
      "CRIT1FN": 5.397605346934028e-79
    },
    {
      "STUDYID": "CDISCPILOT01",
      "SUBJID": "1028",
      "USUBJID": "01-701-1028",
      "TRTP": "Xanomeline High Dose",
      "TRTPN": 81.0,
      "TRTA": "Xanomeline High Dose",
      "TRTAN": 81.0,
      "TRTSDT": 19558.0,
      "TRTEDT": 19737.0,
      "AGE": 71.0,
      "AGEGR1": "65-80",
      "AGEGR1N": 2.0,
      "RACE": "WHITE",
      "RACEN": 1.0,
      "SEX": "M",
      "COMP24FL": "Y",
      "DSRAEFL": "",
      "SAFFL": "Y",
      "AVISIT": "Week 6",
      "AVISITN": 6.0,
      "ADY": 42.0,
      "ADT": 19599.0,
      "VISIT": "WEEK 6",
      "VISITNUM": 7.0,
      "PARAMTYP": "",
      "PARAM": "Aspartate Aminotransferase (U/L)",
      "PARAMCD": "AST",
      "PARAMN": 2.0,
      "PARCAT1": "CHEM",
      "AVAL": 26.0,
      "BASE": 24.0,
      "A1LO": 11.0,
      "A1HI": 36.0,
      "R2A1LO": 2.3636363636363638,
      "R2A1HI": 0.7222222222222222,
      "BR2A1LO": 2.1818181818181817,
      "BR2A1HI": 0.6666666666666666,
      "ABLFL": "",
      "SHIFT1": "",
      "SHIFT1N": NaN,
      "CRIT1": "R2A1HI > 1.5",
      "CRIT1FL": "N",
      "CRIT1FN": 5.397605346934028e-79
    },
    {
      "STUDYID": "CDISCPILOT01",
      "SUBJID": "1028",
      "USUBJID": "01-701-1028",
      "TRTP": "Xanomeline High Dose",
      "TRTPN": 81.0,
      "TRTA": "Xanomeline High Dose",
      "TRTAN": 81.0,
      "TRTSDT": 19558.0,
      "TRTEDT": 19737.0,
      "AGE": 71.0,
      "AGEGR1": "65-80",
      "AGEGR1N": 2.0,
      "RACE": "WHITE",
      "RACEN": 1.0,
      "SEX": "M",
      "COMP24FL": "Y",
      "DSRAEFL": "",
      "SAFFL": "Y",
      "AVISIT": "Week 6",
      "AVISITN": 6.0,
      "ADY": 42.0,
      "ADT": 19599.0,
      "VISIT": "WEEK 6",
      "VISITNUM": 7.0,
      "PARAMTYP": "",
      "PARAM": "Bilirubin (umol/L)",
      "PARAMCD": "BILI",
      "PARAMN": 3.0,
      "PARCAT1": "CHEM",
      "AVAL": 11.969999999999999,
      "BASE": 18.81,
      "A1LO": 3.0,
      "A1HI": 21.0,
      "R2A1LO": 3.9899999999999998,
      "R2A1HI": 0.57,
      "BR2A1LO": 6.27,
      "BR2A1HI": 0.8957142857142857,
      "ABLFL": "",
      "SHIFT1": "",
      "SHIFT1N": NaN,
      "CRIT1": "R2A1HI > 1.5",
      "CRIT1FL": "N",
      "CRIT1FN": 5.397605346934028e-79
    },
    {
      "STUDYID": "CDISCPILOT01",
      "SUBJID": "1028",
      "USUBJID": "01-701-1028",
      "TRTP": "Xanomeline High Dose",
      "TRTPN": 81.0,
      "TRTA": "Xanomeline High Dose",
      "TRTAN": 81.0,
      "TRTSDT": 19558.0,
      "TRTEDT": 19737.0,
      "AGE": 71.0,
      "AGEGR1": "65-80",
      "AGEGR1N": 2.0,
      "RACE": "WHITE",
      "RACEN": 1.0,
      "SEX": "M",
      "COMP24FL": "Y",
      "DSRAEFL": "",
      "SAFFL": "Y",
      "AVISIT": "Week 6",
      "AVISITN": 6.0,
      "ADY": NaN,
      "ADT": NaN,
      "VISIT": "",
      "VISITNUM": NaN,
      "PARAMTYP": "DERIVED",
      "PARAM": "Bilirubin 1.5 x ULN",
      "PARAMCD": "BILIHY",
      "PARAMN": 4.0,
      "PARCAT1": "HYLAW",
      "AVAL": 5.397605346934028e-79,
      "BASE": 5.397605346934028e-79,
      "A1LO": NaN,
      "A1HI": NaN,
      "R2A1LO": NaN,
      "R2A1HI": NaN,
      "BR2A1LO": NaN,
      "BR2A1HI": NaN,
      "ABLFL": "",
      "SHIFT1": "Normal to Normal",
      "SHIFT1N": 1.0,
      "CRIT1": "",
      "CRIT1FL": "",
      "CRIT1FN": NaN
    },
    {
      "STUDYID": "CDISCPILOT01",
      "SUBJID": "1028",
      "USUBJID": "01-701-1028",
      "TRTP": "Xanomeline High Dose",
      "TRTPN": 81.0,
      "TRTA": "Xanomeline High Dose",
      "TRTAN": 81.0,
      "TRTSDT": 19558.0,
      "TRTEDT": 19737.0,
      "AGE": 71.0,
      "AGEGR1": "65-80",
      "AGEGR1N": 2.0,
      "RACE": "WHITE",
      "RACEN": 1.0,
      "SEX": "M",
      "COMP24FL": "Y",
      "DSRAEFL": "",
      "SAFFL": "Y",
      "AVISIT": "Week 6",
      "AVISITN": 6.0,
      "ADY": NaN,
      "ADT": NaN,
      "VISIT": "",
      "VISITNUM": NaN,
      "PARAMTYP": "DERIVED",
      "PARAM": "Transaminase 1.5 x ULN",
      "PARAMCD": "TRANSHY",
      "PARAMN": 5.0,
      "PARCAT1": "HYLAW",
      "AVAL": 5.397605346934028e-79,
      "BASE": 5.397605346934028e-79,
      "A1LO": NaN,
      "A1HI": NaN,
      "R2A1LO": NaN,
      "R2A1HI": NaN,
      "BR2A1LO": NaN,
      "BR2A1HI": NaN,
      "ABLFL": "",
      "SHIFT1": "Normal to Normal",
      "SHIFT1N": 1.0,
      "CRIT1": "",
      "CRIT1FL": "",
      "CRIT1FN": NaN
    },
    {
      "STUDYID": "CDISCPILOT01",
      "SUBJID": "1028",
      "USUBJID": "01-701-1028",
      "TRTP": "Xanomeline High Dose",
      "TRTPN": 81.0,
      "TRTA": "Xanomeline High Dose",
      "TRTAN": 81.0,
      "TRTSDT": 19558.0,
      "TRTEDT": 19737.0,
      "AGE": 71.0,
      "AGEGR1": "65-80",
      "AGEGR1N": 2.0,
      "RACE": "WHITE",
      "RACEN": 1.0,
      "SEX": "M",
      "COMP24FL": "Y",
      "DSRAEFL": "",
      "SAFFL": "Y",
      "AVISIT": "Week 6",
      "AVISITN": 6.0,
      "ADY": NaN,
      "ADT": NaN,
      "VISIT": "",
      "VISITNUM": NaN,
      "PARAMTYP": "DERIVED",
      "PARAM": "Total Bili 1.5 x ULN and Transaminase 1.5 x ULN",
      "PARAMCD": "HYLAW",
      "PARAMN": 6.0,
      "PARCAT1": "HYLAW",
      "AVAL": 5.397605346934028e-79,
      "BASE": 5.397605346934028e-79,
      "A1LO": NaN,
      "A1HI": NaN,
      "R2A1LO": NaN,
      "R2A1HI": NaN,
      "BR2A1LO": NaN,
      "BR2A1HI": NaN,
      "ABLFL": "",
      "SHIFT1": "Normal to Normal",
      "SHIFT1N": 1.0,
      "CRIT1": "",
      "CRIT1FL": "",
      "CRIT1FN": NaN
    },
    {
      "STUDYID": "CDISCPILOT01",
      "SUBJID": "1028",
      "USUBJID": "01-701-1028",
      "TRTP": "Xanomeline High Dose",
      "TRTPN": 81.0,
      "TRTA": "Xanomeline High Dose",
      "TRTAN": 81.0,
      "TRTSDT": 19558.0,
      "TRTEDT": 19737.0,
      "AGE": 71.0,
      "AGEGR1": "65-80",
      "AGEGR1N": 2.0,
      "RACE": "WHITE",
      "RACEN": 1.0,
      "SEX": "M",
      "COMP24FL": "Y",
      "DSRAEFL": "",
      "SAFFL": "Y",
      "AVISIT": "Week 8",
      "AVISITN": 8.0,
      "ADY": 54.0,
      "ADT": 19611.0,
      "VISIT": "WEEK 8",
      "VISITNUM": 8.0,
      "PARAMTYP": "",
      "PARAM": "Alanine Aminotransferase (U/L)",
      "PARAMCD": "ALT",
      "PARAMN": 1.0,
      "PARCAT1": "CHEM",
      "AVAL": 33.0,
      "BASE": 26.0,
      "A1LO": 6.0,
      "A1HI": 35.0,
      "R2A1LO": 5.5,
      "R2A1HI": 0.9428571428571428,
      "BR2A1LO": 4.333333333333333,
      "BR2A1HI": 0.7428571428571429,
      "ABLFL": "",
      "SHIFT1": "",
      "SHIFT1N": NaN,
      "CRIT1": "R2A1HI > 1.5",
      "CRIT1FL": "N",
      "CRIT1FN": 5.397605346934028e-79
    },
    {
      "STUDYID": "CDISCPILOT01",
      "SUBJID": "1028",
      "USUBJID": "01-701-1028",
      "TRTP": "Xanomeline High Dose",
      "TRTPN": 81.0,
      "TRTA": "Xanomeline High Dose",
      "TRTAN": 81.0,
      "TRTSDT": 19558.0,
      "TRTEDT": 19737.0,
      "AGE": 71.0,
      "AGEGR1": "65-80",
      "AGEGR1N": 2.0,
      "RACE": "WHITE",
      "RACEN": 1.0,
      "SEX": "M",
      "COMP24FL": "Y",
      "DSRAEFL": "",
      "SAFFL": "Y",
      "AVISIT": "Week 8",
      "AVISITN": 8.0,
      "ADY": 54.0,
      "ADT": 19611.0,
      "VISIT": "WEEK 8",
      "VISITNUM": 8.0,
      "PARAMTYP": "",
      "PARAM": "Aspartate Aminotransferase (U/L)",
      "PARAMCD": "AST",
      "PARAMN": 2.0,
      "PARCAT1": "CHEM",
      "AVAL": 28.0,
      "BASE": 24.0,
      "A1LO": 11.0,
      "A1HI": 36.0,
      "R2A1LO": 2.5454545454545454,
      "R2A1HI": 0.7777777777777778,
      "BR2A1LO": 2.1818181818181817,
      "BR2A1HI": 0.6666666666666666,
      "ABLFL": "",
      "SHIFT1": "",
      "SHIFT1N": NaN,
      "CRIT1": "R2A1HI > 1.5",
      "CRIT1FL": "N",
      "CRIT1FN": 5.397605346934028e-79
    },
    {
      "STUDYID": "CDISCPILOT01",
      "SUBJID": "1028",
      "USUBJID": "01-701-1028",
      "TRTP": "Xanomeline High Dose",
      "TRTPN": 81.0,
      "TRTA": "Xanomeline High Dose",
      "TRTAN": 81.0,
      "TRTSDT": 19558.0,
      "TRTEDT": 19737.0,
      "AGE": 71.0,
      "AGEGR1": "65-80",
      "AGEGR1N": 2.0,
      "RACE": "WHITE",
      "RACEN": 1.0,
      "SEX": "M",
      "COMP24FL": "Y",
      "DSRAEFL": "",
      "SAFFL": "Y",
      "AVISIT": "Week 8",
      "AVISITN": 8.0,
      "ADY": 54.0,
      "ADT": 19611.0,
      "VISIT": "WEEK 8",
      "VISITNUM": 8.0,
      "PARAMTYP": "",
      "PARAM": "Bilirubin (umol/L)",
      "PARAMCD": "BILI",
      "PARAMN": 3.0,
      "PARCAT1": "CHEM",
      "AVAL": 13.68,
      "BASE": 18.81,
      "A1LO": 3.0,
      "A1HI": 21.0,
      "R2A1LO": 4.56,
      "R2A1HI": 0.6514285714285715,
      "BR2A1LO": 6.27,
      "BR2A1HI": 0.8957142857142857,
      "ABLFL": "",
      "SHIFT1": "",
      "SHIFT1N": NaN,
      "CRIT1": "R2A1HI > 1.5",
      "CRIT1FL": "N",
      "CRIT1FN": 5.397605346934028e-79
    },
    {
      "STUDYID": "CDISCPILOT01",
      "SUBJID": "1028",
      "USUBJID": "01-701-1028",
      "TRTP": "Xanomeline High Dose",
      "TRTPN": 81.0,
      "TRTA": "Xanomeline High Dose",
      "TRTAN": 81.0,
      "TRTSDT": 19558.0,
      "TRTEDT": 19737.0,
      "AGE": 71.0,
      "AGEGR1": "65-80",
      "AGEGR1N": 2.0,
      "RACE": "WHITE",
      "RACEN": 1.0,
      "SEX": "M",
      "COMP24FL": "Y",
      "DSRAEFL": "",
      "SAFFL": "Y",
      "AVISIT": "Week 8",
      "AVISITN": 8.0,
      "ADY": NaN,
      "ADT": NaN,
      "VISIT": "",
      "VISITNUM": NaN,
      "PARAMTYP": "DERIVED",
      "PARAM": "Bilirubin 1.5 x ULN",
      "PARAMCD": "BILIHY",
      "PARAMN": 4.0,
      "PARCAT1": "HYLAW",
      "AVAL": 5.397605346934028e-79,
      "BASE": 5.397605346934028e-79,
      "A1LO": NaN,
      "A1HI": NaN,
      "R2A1LO": NaN,
      "R2A1HI": NaN,
      "BR2A1LO": NaN,
      "BR2A1HI": NaN,
      "ABLFL": "",
      "SHIFT1": "Normal to Normal",
      "SHIFT1N": 1.0,
      "CRIT1": "",
      "CRIT1FL": "",
      "CRIT1FN": NaN
    },
    {
      "STUDYID": "CDISCPILOT01",
      "SUBJID": "1028",
      "USUBJID": "01-701-1028",
      "TRTP": "Xanomeline High Dose",
      "TRTPN": 81.0,
      "TRTA": "Xanomeline High Dose",
      "TRTAN": 81.0,
      "TRTSDT": 19558.0,
      "TRTEDT": 19737.0,
      "AGE": 71.0,
      "AGEGR1": "65-80",
      "AGEGR1N": 2.0,
      "RACE": "WHITE",
      "RACEN": 1.0,
      "SEX": "M",
      "COMP24FL": "Y",
      "DSRAEFL": "",
      "SAFFL": "Y",
      "AVISIT": "Week 8",
      "AVISITN": 8.0,
      "ADY": NaN,
      "ADT": NaN,
      "VISIT": "",
      "VISITNUM": NaN,
      "PARAMTYP": "DERIVED",
      "PARAM": "Transaminase 1.5 x ULN",
      "PARAMCD": "TRANSHY",
      "PARAMN": 5.0,
      "PARCAT1": "HYLAW",
      "AVAL": 5.397605346934028e-79,
      "BASE": 5.397605346934028e-79,
      "A1LO": NaN,
      "A1HI": NaN,
      "R2A1LO": NaN,
      "R2A1HI": NaN,
      "BR2A1LO": NaN,
      "BR2A1HI": NaN,
      "ABLFL": "",
      "SHIFT1": "Normal to Normal",
      "SHIFT1N": 1.0,
      "CRIT1": "",
      "CRIT1FL": "",
      "CRIT1FN": NaN
    },
    {
      "STUDYID": "CDISCPILOT01",
      "SUBJID": "1028",
      "USUBJID": "01-701-1028",
      "TRTP": "Xanomeline High Dose",
      "TRTPN": 81.0,
      "TRTA": "Xanomeline High Dose",
      "TRTAN": 81.0,
      "TRTSDT": 19558.0,
      "TRTEDT": 19737.0,
      "AGE": 71.0,
      "AGEGR1": "65-80",
      "AGEGR1N": 2.0,
      "RACE": "WHITE",
      "RACEN": 1.0,
      "SEX": "M",
      "COMP24FL": "Y",
      "DSRAEFL": "",
      "SAFFL": "Y",
      "AVISIT": "Week 8",
      "AVISITN": 8.0,
      "ADY": NaN,
      "ADT": NaN,
      "VISIT": "",
      "VISITNUM": NaN,
      "PARAMTYP": "DERIVED",
      "PARAM": "Total Bili 1.5 x ULN and Transaminase 1.5 x ULN",
      "PARAMCD": "HYLAW",
      "PARAMN": 6.0,
      "PARCAT1": "HYLAW",
      "AVAL": 5.397605346934028e-79,
      "BASE": 5.397605346934028e-79,
      "A1LO": NaN,
      "A1HI": NaN,
      "R2A1LO": NaN,
      "R2A1HI": NaN,
      "BR2A1LO": NaN,
      "BR2A1HI": NaN,
      "ABLFL": "",
      "SHIFT1": "Normal to Normal",
      "SHIFT1N": 1.0,
      "CRIT1": "",
      "CRIT1FL": "",
      "CRIT1FN": NaN
    },
    {
      "STUDYID": "CDISCPILOT01",
      "SUBJID": "1028",
      "USUBJID": "01-701-1028",
      "TRTP": "Xanomeline High Dose",
      "TRTPN": 81.0,
      "TRTA": "Xanomeline High Dose",
      "TRTAN": 81.0,
      "TRTSDT": 19558.0,
      "TRTEDT": 19737.0,
      "AGE": 71.0,
      "AGEGR1": "65-80",
      "AGEGR1N": 2.0,
      "RACE": "WHITE",
      "RACEN": 1.0,
      "SEX": "M",
      "COMP24FL": "Y",
      "DSRAEFL": "",
      "SAFFL": "Y",
      "AVISIT": "Week 12",
      "AVISITN": 12.0,
      "ADY": 83.0,
      "ADT": 19640.0,
      "VISIT": "WEEK 12",
      "VISITNUM": 9.0,
      "PARAMTYP": "",
      "PARAM": "Alanine Aminotransferase (U/L)",
      "PARAMCD": "ALT",
      "PARAMN": 1.0,
      "PARCAT1": "CHEM",
      "AVAL": 29.0,
      "BASE": 26.0,
      "A1LO": 6.0,
      "A1HI": 35.0,
      "R2A1LO": 4.833333333333333,
      "R2A1HI": 0.8285714285714286,
      "BR2A1LO": 4.333333333333333,
      "BR2A1HI": 0.7428571428571429,
      "ABLFL": "",
      "SHIFT1": "",
      "SHIFT1N": NaN,
      "CRIT1": "R2A1HI > 1.5",
      "CRIT1FL": "N",
      "CRIT1FN": 5.397605346934028e-79
    },
    {
      "STUDYID": "CDISCPILOT01",
      "SUBJID": "1028",
      "USUBJID": "01-701-1028",
      "TRTP": "Xanomeline High Dose",
      "TRTPN": 81.0,
      "TRTA": "Xanomeline High Dose",
      "TRTAN": 81.0,
      "TRTSDT": 19558.0,
      "TRTEDT": 19737.0,
      "AGE": 71.0,
      "AGEGR1": "65-80",
      "AGEGR1N": 2.0,
      "RACE": "WHITE",
      "RACEN": 1.0,
      "SEX": "M",
      "COMP24FL": "Y",
      "DSRAEFL": "",
      "SAFFL": "Y",
      "AVISIT": "Week 12",
      "AVISITN": 12.0,
      "ADY": 83.0,
      "ADT": 19640.0,
      "VISIT": "WEEK 12",
      "VISITNUM": 9.0,
      "PARAMTYP": "",
      "PARAM": "Aspartate Aminotransferase (U/L)",
      "PARAMCD": "AST",
      "PARAMN": 2.0,
      "PARCAT1": "CHEM",
      "AVAL": 28.0,
      "BASE": 24.0,
      "A1LO": 11.0,
      "A1HI": 36.0,
      "R2A1LO": 2.5454545454545454,
      "R2A1HI": 0.7777777777777778,
      "BR2A1LO": 2.1818181818181817,
      "BR2A1HI": 0.6666666666666666,
      "ABLFL": "",
      "SHIFT1": "",
      "SHIFT1N": NaN,
      "CRIT1": "R2A1HI > 1.5",
      "CRIT1FL": "N",
      "CRIT1FN": 5.397605346934028e-79
    },
    {
      "STUDYID": "CDISCPILOT01",
      "SUBJID": "1028",
      "USUBJID": "01-701-1028",
      "TRTP": "Xanomeline High Dose",
      "TRTPN": 81.0,
      "TRTA": "Xanomeline High Dose",
      "TRTAN": 81.0,
      "TRTSDT": 19558.0,
      "TRTEDT": 19737.0,
      "AGE": 71.0,
      "AGEGR1": "65-80",
      "AGEGR1N": 2.0,
      "RACE": "WHITE",
      "RACEN": 1.0,
      "SEX": "M",
      "COMP24FL": "Y",
      "DSRAEFL": "",
      "SAFFL": "Y",
      "AVISIT": "Week 12",
      "AVISITN": 12.0,
      "ADY": 83.0,
      "ADT": 19640.0,
      "VISIT": "WEEK 12",
      "VISITNUM": 9.0,
      "PARAMTYP": "",
      "PARAM": "Bilirubin (umol/L)",
      "PARAMCD": "BILI",
      "PARAMN": 3.0,
      "PARCAT1": "CHEM",
      "AVAL": 13.68,
      "BASE": 18.81,
      "A1LO": 3.0,
      "A1HI": 21.0,
      "R2A1LO": 4.56,
      "R2A1HI": 0.6514285714285715,
      "BR2A1LO": 6.27,
      "BR2A1HI": 0.8957142857142857,
      "ABLFL": "",
      "SHIFT1": "",
      "SHIFT1N": NaN,
      "CRIT1": "R2A1HI > 1.5",
      "CRIT1FL": "N",
      "CRIT1FN": 5.397605346934028e-79
    },
    {
      "STUDYID": "CDISCPILOT01",
      "SUBJID": "1028",
      "USUBJID": "01-701-1028",
      "TRTP": "Xanomeline High Dose",
      "TRTPN": 81.0,
      "TRTA": "Xanomeline High Dose",
      "TRTAN": 81.0,
      "TRTSDT": 19558.0,
      "TRTEDT": 19737.0,
      "AGE": 71.0,
      "AGEGR1": "65-80",
      "AGEGR1N": 2.0,
      "RACE": "WHITE",
      "RACEN": 1.0,
      "SEX": "M",
      "COMP24FL": "Y",
      "DSRAEFL": "",
      "SAFFL": "Y",
      "AVISIT": "Week 12",
      "AVISITN": 12.0,
      "ADY": NaN,
      "ADT": NaN,
      "VISIT": "",
      "VISITNUM": NaN,
      "PARAMTYP": "DERIVED",
      "PARAM": "Bilirubin 1.5 x ULN",
      "PARAMCD": "BILIHY",
      "PARAMN": 4.0,
      "PARCAT1": "HYLAW",
      "AVAL": 5.397605346934028e-79,
      "BASE": 5.397605346934028e-79,
      "A1LO": NaN,
      "A1HI": NaN,
      "R2A1LO": NaN,
      "R2A1HI": NaN,
      "BR2A1LO": NaN,
      "BR2A1HI": NaN,
      "ABLFL": "",
      "SHIFT1": "Normal to Normal",
      "SHIFT1N": 1.0,
      "CRIT1": "",
      "CRIT1FL": "",
      "CRIT1FN": NaN
    },
    {
      "STUDYID": "CDISCPILOT01",
      "SUBJID": "1028",
      "USUBJID": "01-701-1028",
      "TRTP": "Xanomeline High Dose",
      "TRTPN": 81.0,
      "TRTA": "Xanomeline High Dose",
      "TRTAN": 81.0,
      "TRTSDT": 19558.0,
      "TRTEDT": 19737.0,
      "AGE": 71.0,
      "AGEGR1": "65-80",
      "AGEGR1N": 2.0,
      "RACE": "WHITE",
      "RACEN": 1.0,
      "SEX": "M",
      "COMP24FL": "Y",
      "DSRAEFL": "",
      "SAFFL": "Y",
      "AVISIT": "Week 12",
      "AVISITN": 12.0,
      "ADY": NaN,
      "ADT": NaN,
      "VISIT": "",
      "VISITNUM": NaN,
      "PARAMTYP": "DERIVED",
      "PARAM": "Transaminase 1.5 x ULN",
      "PARAMCD": "TRANSHY",
      "PARAMN": 5.0,
      "PARCAT1": "HYLAW",
      "AVAL": 5.397605346934028e-79,
      "BASE": 5.397605346934028e-79,
      "A1LO": NaN,
      "A1HI": NaN,
      "R2A1LO": NaN,
      "R2A1HI": NaN,
      "BR2A1LO": NaN,
      "BR2A1HI": NaN,
      "ABLFL": "",
      "SHIFT1": "Normal to Normal",
      "SHIFT1N": 1.0,
      "CRIT1": "",
      "CRIT1FL": "",
      "CRIT1FN": NaN
    },
    {
      "STUDYID": "CDISCPILOT01",
      "SUBJID": "1028",
      "USUBJID": "01-701-1028",
      "TRTP": "Xanomeline High Dose",
      "TRTPN": 81.0,
      "TRTA": "Xanomeline High Dose",
      "TRTAN": 81.0,
      "TRTSDT": 19558.0,
      "TRTEDT": 19737.0,
      "AGE": 71.0,
      "AGEGR1": "65-80",
      "AGEGR1N": 2.0,
      "RACE": "WHITE",
      "RACEN": 1.0,
      "SEX": "M",
      "COMP24FL": "Y",
      "DSRAEFL": "",
      "SAFFL": "Y",
      "AVISIT": "Week 12",
      "AVISITN": 12.0,
      "ADY": NaN,
      "ADT": NaN,
      "VISIT": "",
      "VISITNUM": NaN,
      "PARAMTYP": "DERIVED",
      "PARAM": "Total Bili 1.5 x ULN and Transaminase 1.5 x ULN",
      "PARAMCD": "HYLAW",
      "PARAMN": 6.0,
      "PARCAT1": "HYLAW",
      "AVAL": 5.397605346934028e-79,
      "BASE": 5.397605346934028e-79,
      "A1LO": NaN,
      "A1HI": NaN,
      "R2A1LO": NaN,
      "R2A1HI": NaN,
      "BR2A1LO": NaN,
      "BR2A1HI": NaN,
      "ABLFL": "",
      "SHIFT1": "Normal to Normal",
      "SHIFT1N": 1.0,
      "CRIT1": "",
      "CRIT1FL": "",
      "CRIT1FN": NaN
    },
    {
      "STUDYID": "CDISCPILOT01",
      "SUBJID": "1028",
      "USUBJID": "01-701-1028",
      "TRTP": "Xanomeline High Dose",
      "TRTPN": 81.0,
      "TRTA": "Xanomeline High Dose",
      "TRTAN": 81.0,
      "TRTSDT": 19558.0,
      "TRTEDT": 19737.0,
      "AGE": 71.0,
      "AGEGR1": "65-80",
      "AGEGR1N": 2.0,
      "RACE": "WHITE",
      "RACEN": 1.0,
      "SEX": "M",
      "COMP24FL": "Y",
      "DSRAEFL": "",
      "SAFFL": "Y",
      "AVISIT": "Week 16",
      "AVISITN": 16.0,
      "ADY": 111.0,
      "ADT": 19668.0,
      "VISIT": "WEEK 16",
      "VISITNUM": 10.0,
      "PARAMTYP": "",
      "PARAM": "Alanine Aminotransferase (U/L)",
      "PARAMCD": "ALT",
      "PARAMN": 1.0,
      "PARCAT1": "CHEM",
      "AVAL": 24.0,
      "BASE": 26.0,
      "A1LO": 6.0,
      "A1HI": 35.0,
      "R2A1LO": 4.0,
      "R2A1HI": 0.6857142857142857,
      "BR2A1LO": 4.333333333333333,
      "BR2A1HI": 0.7428571428571429,
      "ABLFL": "",
      "SHIFT1": "",
      "SHIFT1N": NaN,
      "CRIT1": "R2A1HI > 1.5",
      "CRIT1FL": "N",
      "CRIT1FN": 5.397605346934028e-79
    },
    {
      "STUDYID": "CDISCPILOT01",
      "SUBJID": "1028",
      "USUBJID": "01-701-1028",
      "TRTP": "Xanomeline High Dose",
      "TRTPN": 81.0,
      "TRTA": "Xanomeline High Dose",
      "TRTAN": 81.0,
      "TRTSDT": 19558.0,
      "TRTEDT": 19737.0,
      "AGE": 71.0,
      "AGEGR1": "65-80",
      "AGEGR1N": 2.0,
      "RACE": "WHITE",
      "RACEN": 1.0,
      "SEX": "M",
      "COMP24FL": "Y",
      "DSRAEFL": "",
      "SAFFL": "Y",
      "AVISIT": "Week 16",
      "AVISITN": 16.0,
      "ADY": 111.0,
      "ADT": 19668.0,
      "VISIT": "WEEK 16",
      "VISITNUM": 10.0,
      "PARAMTYP": "",
      "PARAM": "Aspartate Aminotransferase (U/L)",
      "PARAMCD": "AST",
      "PARAMN": 2.0,
      "PARCAT1": "CHEM",
      "AVAL": 18.0,
      "BASE": 24.0,
      "A1LO": 11.0,
      "A1HI": 36.0,
      "R2A1LO": 1.6363636363636365,
      "R2A1HI": 0.5,
      "BR2A1LO": 2.1818181818181817,
      "BR2A1HI": 0.6666666666666666,
      "ABLFL": "",
      "SHIFT1": "",
      "SHIFT1N": NaN,
      "CRIT1": "R2A1HI > 1.5",
      "CRIT1FL": "N",
      "CRIT1FN": 5.397605346934028e-79
    },
    {
      "STUDYID": "CDISCPILOT01",
      "SUBJID": "1028",
      "USUBJID": "01-701-1028",
      "TRTP": "Xanomeline High Dose",
      "TRTPN": 81.0,
      "TRTA": "Xanomeline High Dose",
      "TRTAN": 81.0,
      "TRTSDT": 19558.0,
      "TRTEDT": 19737.0,
      "AGE": 71.0,
      "AGEGR1": "65-80",
      "AGEGR1N": 2.0,
      "RACE": "WHITE",
      "RACEN": 1.0,
      "SEX": "M",
      "COMP24FL": "Y",
      "DSRAEFL": "",
      "SAFFL": "Y",
      "AVISIT": "Week 16",
      "AVISITN": 16.0,
      "ADY": 111.0,
      "ADT": 19668.0,
      "VISIT": "WEEK 16",
      "VISITNUM": 10.0,
      "PARAMTYP": "",
      "PARAM": "Bilirubin (umol/L)",
      "PARAMCD": "BILI",
      "PARAMN": 3.0,
      "PARCAT1": "CHEM",
      "AVAL": 11.969999999999999,
      "BASE": 18.81,
      "A1LO": 3.0,
      "A1HI": 21.0,
      "R2A1LO": 3.9899999999999998,
      "R2A1HI": 0.57,
      "BR2A1LO": 6.27,
      "BR2A1HI": 0.8957142857142857,
      "ABLFL": "",
      "SHIFT1": "",
      "SHIFT1N": NaN,
      "CRIT1": "R2A1HI > 1.5",
      "CRIT1FL": "N",
      "CRIT1FN": 5.397605346934028e-79
    },
    {
      "STUDYID": "CDISCPILOT01",
      "SUBJID": "1028",
      "USUBJID": "01-701-1028",
      "TRTP": "Xanomeline High Dose",
      "TRTPN": 81.0,
      "TRTA": "Xanomeline High Dose",
      "TRTAN": 81.0,
      "TRTSDT": 19558.0,
      "TRTEDT": 19737.0,
      "AGE": 71.0,
      "AGEGR1": "65-80",
      "AGEGR1N": 2.0,
      "RACE": "WHITE",
      "RACEN": 1.0,
      "SEX": "M",
      "COMP24FL": "Y",
      "DSRAEFL": "",
      "SAFFL": "Y",
      "AVISIT": "Week 16",
      "AVISITN": 16.0,
      "ADY": NaN,
      "ADT": NaN,
      "VISIT": "",
      "VISITNUM": NaN,
      "PARAMTYP": "DERIVED",
      "PARAM": "Bilirubin 1.5 x ULN",
      "PARAMCD": "BILIHY",
      "PARAMN": 4.0,
      "PARCAT1": "HYLAW",
      "AVAL": 5.397605346934028e-79,
      "BASE": 5.397605346934028e-79,
      "A1LO": NaN,
      "A1HI": NaN,
      "R2A1LO": NaN,
      "R2A1HI": NaN,
      "BR2A1LO": NaN,
      "BR2A1HI": NaN,
      "ABLFL": "",
      "SHIFT1": "Normal to Normal",
      "SHIFT1N": 1.0,
      "CRIT1": "",
      "CRIT1FL": "",
      "CRIT1FN": NaN
    },
    {
      "STUDYID": "CDISCPILOT01",
      "SUBJID": "1028",
      "USUBJID": "01-701-1028",
      "TRTP": "Xanomeline High Dose",
      "TRTPN": 81.0,
      "TRTA": "Xanomeline High Dose",
      "TRTAN": 81.0,
      "TRTSDT": 19558.0,
      "TRTEDT": 19737.0,
      "AGE": 71.0,
      "AGEGR1": "65-80",
      "AGEGR1N": 2.0,
      "RACE": "WHITE",
      "RACEN": 1.0,
      "SEX": "M",
      "COMP24FL": "Y",
      "DSRAEFL": "",
      "SAFFL": "Y",
      "AVISIT": "Week 16",
      "AVISITN": 16.0,
      "ADY": NaN,
      "ADT": NaN,
      "VISIT": "",
      "VISITNUM": NaN,
      "PARAMTYP": "DERIVED",
      "PARAM": "Transaminase 1.5 x ULN",
      "PARAMCD": "TRANSHY",
      "PARAMN": 5.0,
      "PARCAT1": "HYLAW",
      "AVAL": 5.397605346934028e-79,
      "BASE": 5.397605346934028e-79,
      "A1LO": NaN,
      "A1HI": NaN,
      "R2A1LO": NaN,
      "R2A1HI": NaN,
      "BR2A1LO": NaN,
      "BR2A1HI": NaN,
      "ABLFL": "",
      "SHIFT1": "Normal to Normal",
      "SHIFT1N": 1.0,
      "CRIT1": "",
      "CRIT1FL": "",
      "CRIT1FN": NaN
    },
    {
      "STUDYID": "CDISCPILOT01",
      "SUBJID": "1028",
      "USUBJID": "01-701-1028",
      "TRTP": "Xanomeline High Dose",
      "TRTPN": 81.0,
      "TRTA": "Xanomeline High Dose",
      "TRTAN": 81.0,
      "TRTSDT": 19558.0,
      "TRTEDT": 19737.0,
      "AGE": 71.0,
      "AGEGR1": "65-80",
      "AGEGR1N": 2.0,
      "RACE": "WHITE",
      "RACEN": 1.0,
      "SEX": "M",
      "COMP24FL": "Y",
      "DSRAEFL": "",
      "SAFFL": "Y",
      "AVISIT": "Week 16",
      "AVISITN": 16.0,
      "ADY": NaN,
      "ADT": NaN,
      "VISIT": "",
      "VISITNUM": NaN,
      "PARAMTYP": "DERIVED",
      "PARAM": "Total Bili 1.5 x ULN and Transaminase 1.5 x ULN",
      "PARAMCD": "HYLAW",
      "PARAMN": 6.0,
      "PARCAT1": "HYLAW",
      "AVAL": 5.397605346934028e-79,
      "BASE": 5.397605346934028e-79,
      "A1LO": NaN,
      "A1HI": NaN,
      "R2A1LO": NaN,
      "R2A1HI": NaN,
      "BR2A1LO": NaN,
      "BR2A1HI": NaN,
      "ABLFL": "",
      "SHIFT1": "Normal to Normal",
      "SHIFT1N": 1.0,
      "CRIT1": "",
      "CRIT1FL": "",
      "CRIT1FN": NaN
    },
    {
      "STUDYID": "CDISCPILOT01",
      "SUBJID": "1028",
      "USUBJID": "01-701-1028",
      "TRTP": "Xanomeline High Dose",
      "TRTPN": 81.0,
      "TRTA": "Xanomeline High Dose",
      "TRTAN": 81.0,
      "TRTSDT": 19558.0,
      "TRTEDT": 19737.0,
      "AGE": 71.0,
      "AGEGR1": "65-80",
      "AGEGR1N": 2.0,
      "RACE": "WHITE",
      "RACEN": 1.0,
      "SEX": "M",
      "COMP24FL": "Y",
      "DSRAEFL": "",
      "SAFFL": "Y",
      "AVISIT": "Week 20",
      "AVISITN": 20.0,
      "ADY": 139.0,
      "ADT": 19696.0,
      "VISIT": "WEEK 20",
      "VISITNUM": 11.0,
      "PARAMTYP": "",
      "PARAM": "Alanine Aminotransferase (U/L)",
      "PARAMCD": "ALT",
      "PARAMN": 1.0,
      "PARCAT1": "CHEM",
      "AVAL": 22.0,
      "BASE": 26.0,
      "A1LO": 6.0,
      "A1HI": 35.0,
      "R2A1LO": 3.6666666666666665,
      "R2A1HI": 0.6285714285714286,
      "BR2A1LO": 4.333333333333333,
      "BR2A1HI": 0.7428571428571429,
      "ABLFL": "",
      "SHIFT1": "",
      "SHIFT1N": NaN,
      "CRIT1": "R2A1HI > 1.5",
      "CRIT1FL": "N",
      "CRIT1FN": 5.397605346934028e-79
    },
    {
      "STUDYID": "CDISCPILOT01",
      "SUBJID": "1028",
      "USUBJID": "01-701-1028",
      "TRTP": "Xanomeline High Dose",
      "TRTPN": 81.0,
      "TRTA": "Xanomeline High Dose",
      "TRTAN": 81.0,
      "TRTSDT": 19558.0,
      "TRTEDT": 19737.0,
      "AGE": 71.0,
      "AGEGR1": "65-80",
      "AGEGR1N": 2.0,
      "RACE": "WHITE",
      "RACEN": 1.0,
      "SEX": "M",
      "COMP24FL": "Y",
      "DSRAEFL": "",
      "SAFFL": "Y",
      "AVISIT": "Week 20",
      "AVISITN": 20.0,
      "ADY": 139.0,
      "ADT": 19696.0,
      "VISIT": "WEEK 20",
      "VISITNUM": 11.0,
      "PARAMTYP": "",
      "PARAM": "Aspartate Aminotransferase (U/L)",
      "PARAMCD": "AST",
      "PARAMN": 2.0,
      "PARCAT1": "CHEM",
      "AVAL": 21.0,
      "BASE": 24.0,
      "A1LO": 11.0,
      "A1HI": 36.0,
      "R2A1LO": 1.9090909090909092,
      "R2A1HI": 0.5833333333333334,
      "BR2A1LO": 2.1818181818181817,
      "BR2A1HI": 0.6666666666666666,
      "ABLFL": "",
      "SHIFT1": "",
      "SHIFT1N": NaN,
      "CRIT1": "R2A1HI > 1.5",
      "CRIT1FL": "N",
      "CRIT1FN": 5.397605346934028e-79
    },
    {
      "STUDYID": "CDISCPILOT01",
      "SUBJID": "1028",
      "USUBJID": "01-701-1028",
      "TRTP": "Xanomeline High Dose",
      "TRTPN": 81.0,
      "TRTA": "Xanomeline High Dose",
      "TRTAN": 81.0,
      "TRTSDT": 19558.0,
      "TRTEDT": 19737.0,
      "AGE": 71.0,
      "AGEGR1": "65-80",
      "AGEGR1N": 2.0,
      "RACE": "WHITE",
      "RACEN": 1.0,
      "SEX": "M",
      "COMP24FL": "Y",
      "DSRAEFL": "",
      "SAFFL": "Y",
      "AVISIT": "Week 20",
      "AVISITN": 20.0,
      "ADY": 139.0,
      "ADT": 19696.0,
      "VISIT": "WEEK 20",
      "VISITNUM": 11.0,
      "PARAMTYP": "",
      "PARAM": "Bilirubin (umol/L)",
      "PARAMCD": "BILI",
      "PARAMN": 3.0,
      "PARCAT1": "CHEM",
      "AVAL": 13.68,
      "BASE": 18.81,
      "A1LO": 3.0,
      "A1HI": 21.0,
      "R2A1LO": 4.56,
      "R2A1HI": 0.6514285714285715,
      "BR2A1LO": 6.27,
      "BR2A1HI": 0.8957142857142857,
      "ABLFL": "",
      "SHIFT1": "",
      "SHIFT1N": NaN,
      "CRIT1": "R2A1HI > 1.5",
      "CRIT1FL": "N",
      "CRIT1FN": 5.397605346934028e-79
    },
    {
      "STUDYID": "CDISCPILOT01",
      "SUBJID": "1028",
      "USUBJID": "01-701-1028",
      "TRTP": "Xanomeline High Dose",
      "TRTPN": 81.0,
      "TRTA": "Xanomeline High Dose",
      "TRTAN": 81.0,
      "TRTSDT": 19558.0,
      "TRTEDT": 19737.0,
      "AGE": 71.0,
      "AGEGR1": "65-80",
      "AGEGR1N": 2.0,
      "RACE": "WHITE",
      "RACEN": 1.0,
      "SEX": "M",
      "COMP24FL": "Y",
      "DSRAEFL": "",
      "SAFFL": "Y",
      "AVISIT": "Week 20",
      "AVISITN": 20.0,
      "ADY": NaN,
      "ADT": NaN,
      "VISIT": "",
      "VISITNUM": NaN,
      "PARAMTYP": "DERIVED",
      "PARAM": "Bilirubin 1.5 x ULN",
      "PARAMCD": "BILIHY",
      "PARAMN": 4.0,
      "PARCAT1": "HYLAW",
      "AVAL": 5.397605346934028e-79,
      "BASE": 5.397605346934028e-79,
      "A1LO": NaN,
      "A1HI": NaN,
      "R2A1LO": NaN,
      "R2A1HI": NaN,
      "BR2A1LO": NaN,
      "BR2A1HI": NaN,
      "ABLFL": "",
      "SHIFT1": "Normal to Normal",
      "SHIFT1N": 1.0,
      "CRIT1": "",
      "CRIT1FL": "",
      "CRIT1FN": NaN
    },
    {
      "STUDYID": "CDISCPILOT01",
      "SUBJID": "1028",
      "USUBJID": "01-701-1028",
      "TRTP": "Xanomeline High Dose",
      "TRTPN": 81.0,
      "TRTA": "Xanomeline High Dose",
      "TRTAN": 81.0,
      "TRTSDT": 19558.0,
      "TRTEDT": 19737.0,
      "AGE": 71.0,
      "AGEGR1": "65-80",
      "AGEGR1N": 2.0,
      "RACE": "WHITE",
      "RACEN": 1.0,
      "SEX": "M",
      "COMP24FL": "Y",
      "DSRAEFL": "",
      "SAFFL": "Y",
      "AVISIT": "Week 20",
      "AVISITN": 20.0,
      "ADY": NaN,
      "ADT": NaN,
      "VISIT": "",
      "VISITNUM": NaN,
      "PARAMTYP": "DERIVED",
      "PARAM": "Transaminase 1.5 x ULN",
      "PARAMCD": "TRANSHY",
      "PARAMN": 5.0,
      "PARCAT1": "HYLAW",
      "AVAL": 5.397605346934028e-79,
      "BASE": 5.397605346934028e-79,
      "A1LO": NaN,
      "A1HI": NaN,
      "R2A1LO": NaN,
      "R2A1HI": NaN,
      "BR2A1LO": NaN,
      "BR2A1HI": NaN,
      "ABLFL": "",
      "SHIFT1": "Normal to Normal",
      "SHIFT1N": 1.0,
      "CRIT1": "",
      "CRIT1FL": "",
      "CRIT1FN": NaN
    },
    {
      "STUDYID": "CDISCPILOT01",
      "SUBJID": "1028",
      "USUBJID": "01-701-1028",
      "TRTP": "Xanomeline High Dose",
      "TRTPN": 81.0,
      "TRTA": "Xanomeline High Dose",
      "TRTAN": 81.0,
      "TRTSDT": 19558.0,
      "TRTEDT": 19737.0,
      "AGE": 71.0,
      "AGEGR1": "65-80",
      "AGEGR1N": 2.0,
      "RACE": "WHITE",
      "RACEN": 1.0,
      "SEX": "M",
      "COMP24FL": "Y",
      "DSRAEFL": "",
      "SAFFL": "Y",
      "AVISIT": "Week 20",
      "AVISITN": 20.0,
      "ADY": NaN,
      "ADT": NaN,
      "VISIT": "",
      "VISITNUM": NaN,
      "PARAMTYP": "DERIVED",
      "PARAM": "Total Bili 1.5 x ULN and Transaminase 1.5 x ULN",
      "PARAMCD": "HYLAW",
      "PARAMN": 6.0,
      "PARCAT1": "HYLAW",
      "AVAL": 5.397605346934028e-79,
      "BASE": 5.397605346934028e-79,
      "A1LO": NaN,
      "A1HI": NaN,
      "R2A1LO": NaN,
      "R2A1HI": NaN,
      "BR2A1LO": NaN,
      "BR2A1HI": NaN,
      "ABLFL": "",
      "SHIFT1": "Normal to Normal",
      "SHIFT1N": 1.0,
      "CRIT1": "",
      "CRIT1FL": "",
      "CRIT1FN": NaN
    },
    {
      "STUDYID": "CDISCPILOT01",
      "SUBJID": "1028",
      "USUBJID": "01-701-1028",
      "TRTP": "Xanomeline High Dose",
      "TRTPN": 81.0,
      "TRTA": "Xanomeline High Dose",
      "TRTAN": 81.0,
      "TRTSDT": 19558.0,
      "TRTEDT": 19737.0,
      "AGE": 71.0,
      "AGEGR1": "65-80",
      "AGEGR1N": 2.0,
      "RACE": "WHITE",
      "RACEN": 1.0,
      "SEX": "M",
      "COMP24FL": "Y",
      "DSRAEFL": "",
      "SAFFL": "Y",
      "AVISIT": "Week 24",
      "AVISITN": 24.0,
      "ADY": 172.0,
      "ADT": 19729.0,
      "VISIT": "WEEK 24",
      "VISITNUM": 12.0,
      "PARAMTYP": "",
      "PARAM": "Alanine Aminotransferase (U/L)",
      "PARAMCD": "ALT",
      "PARAMN": 1.0,
      "PARCAT1": "CHEM",
      "AVAL": 24.0,
      "BASE": 26.0,
      "A1LO": 6.0,
      "A1HI": 35.0,
      "R2A1LO": 4.0,
      "R2A1HI": 0.6857142857142857,
      "BR2A1LO": 4.333333333333333,
      "BR2A1HI": 0.7428571428571429,
      "ABLFL": "",
      "SHIFT1": "",
      "SHIFT1N": NaN,
      "CRIT1": "R2A1HI > 1.5",
      "CRIT1FL": "N",
      "CRIT1FN": 5.397605346934028e-79
    },
    {
      "STUDYID": "CDISCPILOT01",
      "SUBJID": "1028",
      "USUBJID": "01-701-1028",
      "TRTP": "Xanomeline High Dose",
      "TRTPN": 81.0,
      "TRTA": "Xanomeline High Dose",
      "TRTAN": 81.0,
      "TRTSDT": 19558.0,
      "TRTEDT": 19737.0,
      "AGE": 71.0,
      "AGEGR1": "65-80",
      "AGEGR1N": 2.0,
      "RACE": "WHITE",
      "RACEN": 1.0,
      "SEX": "M",
      "COMP24FL": "Y",
      "DSRAEFL": "",
      "SAFFL": "Y",
      "AVISIT": "Week 24",
      "AVISITN": 24.0,
      "ADY": 172.0,
      "ADT": 19729.0,
      "VISIT": "WEEK 24",
      "VISITNUM": 12.0,
      "PARAMTYP": "",
      "PARAM": "Aspartate Aminotransferase (U/L)",
      "PARAMCD": "AST",
      "PARAMN": 2.0,
      "PARCAT1": "CHEM",
      "AVAL": 23.0,
      "BASE": 24.0,
      "A1LO": 11.0,
      "A1HI": 36.0,
      "R2A1LO": 2.090909090909091,
      "R2A1HI": 0.6388888888888888,
      "BR2A1LO": 2.1818181818181817,
      "BR2A1HI": 0.6666666666666666,
      "ABLFL": "",
      "SHIFT1": "",
      "SHIFT1N": NaN,
      "CRIT1": "R2A1HI > 1.5",
      "CRIT1FL": "N",
      "CRIT1FN": 5.397605346934028e-79
    },
    {
      "STUDYID": "CDISCPILOT01",
      "SUBJID": "1028",
      "USUBJID": "01-701-1028",
      "TRTP": "Xanomeline High Dose",
      "TRTPN": 81.0,
      "TRTA": "Xanomeline High Dose",
      "TRTAN": 81.0,
      "TRTSDT": 19558.0,
      "TRTEDT": 19737.0,
      "AGE": 71.0,
      "AGEGR1": "65-80",
      "AGEGR1N": 2.0,
      "RACE": "WHITE",
      "RACEN": 1.0,
      "SEX": "M",
      "COMP24FL": "Y",
      "DSRAEFL": "",
      "SAFFL": "Y",
      "AVISIT": "Week 24",
      "AVISITN": 24.0,
      "ADY": 172.0,
      "ADT": 19729.0,
      "VISIT": "WEEK 24",
      "VISITNUM": 12.0,
      "PARAMTYP": "",
      "PARAM": "Bilirubin (umol/L)",
      "PARAMCD": "BILI",
      "PARAMN": 3.0,
      "PARCAT1": "CHEM",
      "AVAL": 15.389999999999999,
      "BASE": 18.81,
      "A1LO": 3.0,
      "A1HI": 21.0,
      "R2A1LO": 5.13,
      "R2A1HI": 0.7328571428571428,
      "BR2A1LO": 6.27,
      "BR2A1HI": 0.8957142857142857,
      "ABLFL": "",
      "SHIFT1": "",
      "SHIFT1N": NaN,
      "CRIT1": "R2A1HI > 1.5",
      "CRIT1FL": "N",
      "CRIT1FN": 5.397605346934028e-79
    },
    {
      "STUDYID": "CDISCPILOT01",
      "SUBJID": "1028",
      "USUBJID": "01-701-1028",
      "TRTP": "Xanomeline High Dose",
      "TRTPN": 81.0,
      "TRTA": "Xanomeline High Dose",
      "TRTAN": 81.0,
      "TRTSDT": 19558.0,
      "TRTEDT": 19737.0,
      "AGE": 71.0,
      "AGEGR1": "65-80",
      "AGEGR1N": 2.0,
      "RACE": "WHITE",
      "RACEN": 1.0,
      "SEX": "M",
      "COMP24FL": "Y",
      "DSRAEFL": "",
      "SAFFL": "Y",
      "AVISIT": "Week 24",
      "AVISITN": 24.0,
      "ADY": NaN,
      "ADT": NaN,
      "VISIT": "",
      "VISITNUM": NaN,
      "PARAMTYP": "DERIVED",
      "PARAM": "Bilirubin 1.5 x ULN",
      "PARAMCD": "BILIHY",
      "PARAMN": 4.0,
      "PARCAT1": "HYLAW",
      "AVAL": 5.397605346934028e-79,
      "BASE": 5.397605346934028e-79,
      "A1LO": NaN,
      "A1HI": NaN,
      "R2A1LO": NaN,
      "R2A1HI": NaN,
      "BR2A1LO": NaN,
      "BR2A1HI": NaN,
      "ABLFL": "",
      "SHIFT1": "Normal to Normal",
      "SHIFT1N": 1.0,
      "CRIT1": "",
      "CRIT1FL": "",
      "CRIT1FN": NaN
    },
    {
      "STUDYID": "CDISCPILOT01",
      "SUBJID": "1028",
      "USUBJID": "01-701-1028",
      "TRTP": "Xanomeline High Dose",
      "TRTPN": 81.0,
      "TRTA": "Xanomeline High Dose",
      "TRTAN": 81.0,
      "TRTSDT": 19558.0,
      "TRTEDT": 19737.0,
      "AGE": 71.0,
      "AGEGR1": "65-80",
      "AGEGR1N": 2.0,
      "RACE": "WHITE",
      "RACEN": 1.0,
      "SEX": "M",
      "COMP24FL": "Y",
      "DSRAEFL": "",
      "SAFFL": "Y",
      "AVISIT": "Week 24",
      "AVISITN": 24.0,
      "ADY": NaN,
      "ADT": NaN,
      "VISIT": "",
      "VISITNUM": NaN,
      "PARAMTYP": "DERIVED",
      "PARAM": "Transaminase 1.5 x ULN",
      "PARAMCD": "TRANSHY",
      "PARAMN": 5.0,
      "PARCAT1": "HYLAW",
      "AVAL": 5.397605346934028e-79,
      "BASE": 5.397605346934028e-79,
      "A1LO": NaN,
      "A1HI": NaN,
      "R2A1LO": NaN,
      "R2A1HI": NaN,
      "BR2A1LO": NaN,
      "BR2A1HI": NaN,
      "ABLFL": "",
      "SHIFT1": "Normal to Normal",
      "SHIFT1N": 1.0,
      "CRIT1": "",
      "CRIT1FL": "",
      "CRIT1FN": NaN
    },
    {
      "STUDYID": "CDISCPILOT01",
      "SUBJID": "1028",
      "USUBJID": "01-701-1028",
      "TRTP": "Xanomeline High Dose",
      "TRTPN": 81.0,
      "TRTA": "Xanomeline High Dose",
      "TRTAN": 81.0,
      "TRTSDT": 19558.0,
      "TRTEDT": 19737.0,
      "AGE": 71.0,
      "AGEGR1": "65-80",
      "AGEGR1N": 2.0,
      "RACE": "WHITE",
      "RACEN": 1.0,
      "SEX": "M",
      "COMP24FL": "Y",
      "DSRAEFL": "",
      "SAFFL": "Y",
      "AVISIT": "Week 24",
      "AVISITN": 24.0,
      "ADY": NaN,
      "ADT": NaN,
      "VISIT": "",
      "VISITNUM": NaN,
      "PARAMTYP": "DERIVED",
      "PARAM": "Total Bili 1.5 x ULN and Transaminase 1.5 x ULN",
      "PARAMCD": "HYLAW",
      "PARAMN": 6.0,
      "PARCAT1": "HYLAW",
      "AVAL": 5.397605346934028e-79,
      "BASE": 5.397605346934028e-79,
      "A1LO": NaN,
      "A1HI": NaN,
      "R2A1LO": NaN,
      "R2A1HI": NaN,
      "BR2A1LO": NaN,
      "BR2A1HI": NaN,
      "ABLFL": "",
      "SHIFT1": "Normal to Normal",
      "SHIFT1N": 1.0,
      "CRIT1": "",
      "CRIT1FL": "",
      "CRIT1FN": NaN
    },
    {
      "STUDYID": "CDISCPILOT01",
      "SUBJID": "1033",
      "USUBJID": "01-701-1033",
      "TRTP": "Xanomeline Low Dose",
      "TRTPN": 54.0,
      "TRTA": "Xanomeline Low Dose",
      "TRTAN": 54.0,
      "TRTSDT": 19800.0,
      "TRTEDT": 19813.0,
      "AGE": 74.0,
      "AGEGR1": "65-80",
      "AGEGR1N": 2.0,
      "RACE": "WHITE",
      "RACEN": 1.0,
      "SEX": "M",
      "COMP24FL": "N",
      "DSRAEFL": "",
      "SAFFL": "Y",
      "AVISIT": "Baseline",
      "AVISITN": 5.397605346934028e-79,
      "ADY": -8.0,
      "ADT": 19792.0,
      "VISIT": "SCREENING 1",
      "VISITNUM": 1.0,
      "PARAMTYP": "",
      "PARAM": "Alanine Aminotransferase (U/L)",
      "PARAMCD": "ALT",
      "PARAMN": 1.0,
      "PARCAT1": "CHEM",
      "AVAL": 16.0,
      "BASE": 16.0,
      "A1LO": 6.0,
      "A1HI": 35.0,
      "R2A1LO": 2.6666666666666665,
      "R2A1HI": 0.45714285714285713,
      "BR2A1LO": 2.6666666666666665,
      "BR2A1HI": 0.45714285714285713,
      "ABLFL": "Y",
      "SHIFT1": "",
      "SHIFT1N": NaN,
      "CRIT1": "R2A1HI > 1.5",
      "CRIT1FL": "N",
      "CRIT1FN": 5.397605346934028e-79
    },
    {
      "STUDYID": "CDISCPILOT01",
      "SUBJID": "1033",
      "USUBJID": "01-701-1033",
      "TRTP": "Xanomeline Low Dose",
      "TRTPN": 54.0,
      "TRTA": "Xanomeline Low Dose",
      "TRTAN": 54.0,
      "TRTSDT": 19800.0,
      "TRTEDT": 19813.0,
      "AGE": 74.0,
      "AGEGR1": "65-80",
      "AGEGR1N": 2.0,
      "RACE": "WHITE",
      "RACEN": 1.0,
      "SEX": "M",
      "COMP24FL": "N",
      "DSRAEFL": "",
      "SAFFL": "Y",
      "AVISIT": "Baseline",
      "AVISITN": 5.397605346934028e-79,
      "ADY": -8.0,
      "ADT": 19792.0,
      "VISIT": "SCREENING 1",
      "VISITNUM": 1.0,
      "PARAMTYP": "",
      "PARAM": "Aspartate Aminotransferase (U/L)",
      "PARAMCD": "AST",
      "PARAMN": 2.0,
      "PARCAT1": "CHEM",
      "AVAL": 20.0,
      "BASE": 20.0,
      "A1LO": 11.0,
      "A1HI": 36.0,
      "R2A1LO": 1.8181818181818181,
      "R2A1HI": 0.5555555555555556,
      "BR2A1LO": 1.8181818181818181,
      "BR2A1HI": 0.5555555555555556,
      "ABLFL": "Y",
      "SHIFT1": "",
      "SHIFT1N": NaN,
      "CRIT1": "R2A1HI > 1.5",
      "CRIT1FL": "N",
      "CRIT1FN": 5.397605346934028e-79
    },
    {
      "STUDYID": "CDISCPILOT01",
      "SUBJID": "1033",
      "USUBJID": "01-701-1033",
      "TRTP": "Xanomeline Low Dose",
      "TRTPN": 54.0,
      "TRTA": "Xanomeline Low Dose",
      "TRTAN": 54.0,
      "TRTSDT": 19800.0,
      "TRTEDT": 19813.0,
      "AGE": 74.0,
      "AGEGR1": "65-80",
      "AGEGR1N": 2.0,
      "RACE": "WHITE",
      "RACEN": 1.0,
      "SEX": "M",
      "COMP24FL": "N",
      "DSRAEFL": "",
      "SAFFL": "Y",
      "AVISIT": "Baseline",
      "AVISITN": 5.397605346934028e-79,
      "ADY": -8.0,
      "ADT": 19792.0,
      "VISIT": "SCREENING 1",
      "VISITNUM": 1.0,
      "PARAMTYP": "",
      "PARAM": "Bilirubin (umol/L)",
      "PARAMCD": "BILI",
      "PARAMN": 3.0,
      "PARCAT1": "CHEM",
      "AVAL": 13.68,
      "BASE": 13.68,
      "A1LO": 3.0,
      "A1HI": 21.0,
      "R2A1LO": 4.56,
      "R2A1HI": 0.6514285714285715,
      "BR2A1LO": 4.56,
      "BR2A1HI": 0.6514285714285715,
      "ABLFL": "Y",
      "SHIFT1": "",
      "SHIFT1N": NaN,
      "CRIT1": "R2A1HI > 1.5",
      "CRIT1FL": "N",
      "CRIT1FN": 5.397605346934028e-79
    },
    {
      "STUDYID": "CDISCPILOT01",
      "SUBJID": "1033",
      "USUBJID": "01-701-1033",
      "TRTP": "Xanomeline Low Dose",
      "TRTPN": 54.0,
      "TRTA": "Xanomeline Low Dose",
      "TRTAN": 54.0,
      "TRTSDT": 19800.0,
      "TRTEDT": 19813.0,
      "AGE": 74.0,
      "AGEGR1": "65-80",
      "AGEGR1N": 2.0,
      "RACE": "WHITE",
      "RACEN": 1.0,
      "SEX": "M",
      "COMP24FL": "N",
      "DSRAEFL": "",
      "SAFFL": "Y",
      "AVISIT": "Baseline",
      "AVISITN": 5.397605346934028e-79,
      "ADY": NaN,
      "ADT": NaN,
      "VISIT": "",
      "VISITNUM": NaN,
      "PARAMTYP": "DERIVED",
      "PARAM": "Bilirubin 1.5 x ULN",
      "PARAMCD": "BILIHY",
      "PARAMN": 4.0,
      "PARCAT1": "HYLAW",
      "AVAL": 5.397605346934028e-79,
      "BASE": 5.397605346934028e-79,
      "A1LO": NaN,
      "A1HI": NaN,
      "R2A1LO": NaN,
      "R2A1HI": NaN,
      "BR2A1LO": NaN,
      "BR2A1HI": NaN,
      "ABLFL": "Y",
      "SHIFT1": "Normal to Normal",
      "SHIFT1N": 1.0,
      "CRIT1": "",
      "CRIT1FL": "",
      "CRIT1FN": NaN
    },
    {
      "STUDYID": "CDISCPILOT01",
      "SUBJID": "1033",
      "USUBJID": "01-701-1033",
      "TRTP": "Xanomeline Low Dose",
      "TRTPN": 54.0,
      "TRTA": "Xanomeline Low Dose",
      "TRTAN": 54.0,
      "TRTSDT": 19800.0,
      "TRTEDT": 19813.0,
      "AGE": 74.0,
      "AGEGR1": "65-80",
      "AGEGR1N": 2.0,
      "RACE": "WHITE",
      "RACEN": 1.0,
      "SEX": "M",
      "COMP24FL": "N",
      "DSRAEFL": "",
      "SAFFL": "Y",
      "AVISIT": "Baseline",
      "AVISITN": 5.397605346934028e-79,
      "ADY": NaN,
      "ADT": NaN,
      "VISIT": "",
      "VISITNUM": NaN,
      "PARAMTYP": "DERIVED",
      "PARAM": "Transaminase 1.5 x ULN",
      "PARAMCD": "TRANSHY",
      "PARAMN": 5.0,
      "PARCAT1": "HYLAW",
      "AVAL": 5.397605346934028e-79,
      "BASE": 5.397605346934028e-79,
      "A1LO": NaN,
      "A1HI": NaN,
      "R2A1LO": NaN,
      "R2A1HI": NaN,
      "BR2A1LO": NaN,
      "BR2A1HI": NaN,
      "ABLFL": "Y",
      "SHIFT1": "Normal to Normal",
      "SHIFT1N": 1.0,
      "CRIT1": "",
      "CRIT1FL": "",
      "CRIT1FN": NaN
    },
    {
      "STUDYID": "CDISCPILOT01",
      "SUBJID": "1033",
      "USUBJID": "01-701-1033",
      "TRTP": "Xanomeline Low Dose",
      "TRTPN": 54.0,
      "TRTA": "Xanomeline Low Dose",
      "TRTAN": 54.0,
      "TRTSDT": 19800.0,
      "TRTEDT": 19813.0,
      "AGE": 74.0,
      "AGEGR1": "65-80",
      "AGEGR1N": 2.0,
      "RACE": "WHITE",
      "RACEN": 1.0,
      "SEX": "M",
      "COMP24FL": "N",
      "DSRAEFL": "",
      "SAFFL": "Y",
      "AVISIT": "Baseline",
      "AVISITN": 5.397605346934028e-79,
      "ADY": NaN,
      "ADT": NaN,
      "VISIT": "",
      "VISITNUM": NaN,
      "PARAMTYP": "DERIVED",
      "PARAM": "Total Bili 1.5 x ULN and Transaminase 1.5 x ULN",
      "PARAMCD": "HYLAW",
      "PARAMN": 6.0,
      "PARCAT1": "HYLAW",
      "AVAL": 5.397605346934028e-79,
      "BASE": 5.397605346934028e-79,
      "A1LO": NaN,
      "A1HI": NaN,
      "R2A1LO": NaN,
      "R2A1HI": NaN,
      "BR2A1LO": NaN,
      "BR2A1HI": NaN,
      "ABLFL": "Y",
      "SHIFT1": "Normal to Normal",
      "SHIFT1N": 1.0,
      "CRIT1": "",
      "CRIT1FL": "",
      "CRIT1FN": NaN
    },
    {
      "STUDYID": "CDISCPILOT01",
      "SUBJID": "1033",
      "USUBJID": "01-701-1033",
      "TRTP": "Xanomeline Low Dose",
      "TRTPN": 54.0,
      "TRTA": "Xanomeline Low Dose",
      "TRTAN": 54.0,
      "TRTSDT": 19800.0,
      "TRTEDT": 19813.0,
      "AGE": 74.0,
      "AGEGR1": "65-80",
      "AGEGR1N": 2.0,
      "RACE": "WHITE",
      "RACEN": 1.0,
      "SEX": "M",
      "COMP24FL": "N",
      "DSRAEFL": "",
      "SAFFL": "Y",
      "AVISIT": "Week 2",
      "AVISITN": 2.0,
      "ADY": 15.0,
      "ADT": 19814.0,
      "VISIT": "WEEK 2",
      "VISITNUM": 4.0,
      "PARAMTYP": "",
      "PARAM": "Alanine Aminotransferase (U/L)",
      "PARAMCD": "ALT",
      "PARAMN": 1.0,
      "PARCAT1": "CHEM",
      "AVAL": 35.0,
      "BASE": 16.0,
      "A1LO": 6.0,
      "A1HI": 35.0,
      "R2A1LO": 5.833333333333333,
      "R2A1HI": 1.0,
      "BR2A1LO": 2.6666666666666665,
      "BR2A1HI": 0.45714285714285713,
      "ABLFL": "",
      "SHIFT1": "",
      "SHIFT1N": NaN,
      "CRIT1": "R2A1HI > 1.5",
      "CRIT1FL": "N",
      "CRIT1FN": 5.397605346934028e-79
    },
    {
      "STUDYID": "CDISCPILOT01",
      "SUBJID": "1033",
      "USUBJID": "01-701-1033",
      "TRTP": "Xanomeline Low Dose",
      "TRTPN": 54.0,
      "TRTA": "Xanomeline Low Dose",
      "TRTAN": 54.0,
      "TRTSDT": 19800.0,
      "TRTEDT": 19813.0,
      "AGE": 74.0,
      "AGEGR1": "65-80",
      "AGEGR1N": 2.0,
      "RACE": "WHITE",
      "RACEN": 1.0,
      "SEX": "M",
      "COMP24FL": "N",
      "DSRAEFL": "",
      "SAFFL": "Y",
      "AVISIT": "Week 2",
      "AVISITN": 2.0,
      "ADY": 15.0,
      "ADT": 19814.0,
      "VISIT": "WEEK 2",
      "VISITNUM": 4.0,
      "PARAMTYP": "",
      "PARAM": "Aspartate Aminotransferase (U/L)",
      "PARAMCD": "AST",
      "PARAMN": 2.0,
      "PARCAT1": "CHEM",
      "AVAL": 26.0,
      "BASE": 20.0,
      "A1LO": 11.0,
      "A1HI": 36.0,
      "R2A1LO": 2.3636363636363638,
      "R2A1HI": 0.7222222222222222,
      "BR2A1LO": 1.8181818181818181,
      "BR2A1HI": 0.5555555555555556,
      "ABLFL": "",
      "SHIFT1": "",
      "SHIFT1N": NaN,
      "CRIT1": "R2A1HI > 1.5",
      "CRIT1FL": "N",
      "CRIT1FN": 5.397605346934028e-79
    },
    {
      "STUDYID": "CDISCPILOT01",
      "SUBJID": "1033",
      "USUBJID": "01-701-1033",
      "TRTP": "Xanomeline Low Dose",
      "TRTPN": 54.0,
      "TRTA": "Xanomeline Low Dose",
      "TRTAN": 54.0,
      "TRTSDT": 19800.0,
      "TRTEDT": 19813.0,
      "AGE": 74.0,
      "AGEGR1": "65-80",
      "AGEGR1N": 2.0,
      "RACE": "WHITE",
      "RACEN": 1.0,
      "SEX": "M",
      "COMP24FL": "N",
      "DSRAEFL": "",
      "SAFFL": "Y",
      "AVISIT": "Week 2",
      "AVISITN": 2.0,
      "ADY": 15.0,
      "ADT": 19814.0,
      "VISIT": "WEEK 2",
      "VISITNUM": 4.0,
      "PARAMTYP": "",
      "PARAM": "Bilirubin (umol/L)",
      "PARAMCD": "BILI",
      "PARAMN": 3.0,
      "PARCAT1": "CHEM",
      "AVAL": 6.84,
      "BASE": 13.68,
      "A1LO": 3.0,
      "A1HI": 21.0,
      "R2A1LO": 2.28,
      "R2A1HI": 0.32571428571428573,
      "BR2A1LO": 4.56,
      "BR2A1HI": 0.6514285714285715,
      "ABLFL": "",
      "SHIFT1": "",
      "SHIFT1N": NaN,
      "CRIT1": "R2A1HI > 1.5",
      "CRIT1FL": "N",
      "CRIT1FN": 5.397605346934028e-79
    },
    {
      "STUDYID": "CDISCPILOT01",
      "SUBJID": "1033",
      "USUBJID": "01-701-1033",
      "TRTP": "Xanomeline Low Dose",
      "TRTPN": 54.0,
      "TRTA": "Xanomeline Low Dose",
      "TRTAN": 54.0,
      "TRTSDT": 19800.0,
      "TRTEDT": 19813.0,
      "AGE": 74.0,
      "AGEGR1": "65-80",
      "AGEGR1N": 2.0,
      "RACE": "WHITE",
      "RACEN": 1.0,
      "SEX": "M",
      "COMP24FL": "N",
      "DSRAEFL": "",
      "SAFFL": "Y",
      "AVISIT": "Week 2",
      "AVISITN": 2.0,
      "ADY": NaN,
      "ADT": NaN,
      "VISIT": "",
      "VISITNUM": NaN,
      "PARAMTYP": "DERIVED",
      "PARAM": "Bilirubin 1.5 x ULN",
      "PARAMCD": "BILIHY",
      "PARAMN": 4.0,
      "PARCAT1": "HYLAW",
      "AVAL": 5.397605346934028e-79,
      "BASE": 5.397605346934028e-79,
      "A1LO": NaN,
      "A1HI": NaN,
      "R2A1LO": NaN,
      "R2A1HI": NaN,
      "BR2A1LO": NaN,
      "BR2A1HI": NaN,
      "ABLFL": "",
      "SHIFT1": "Normal to Normal",
      "SHIFT1N": 1.0,
      "CRIT1": "",
      "CRIT1FL": "",
      "CRIT1FN": NaN
    },
    {
      "STUDYID": "CDISCPILOT01",
      "SUBJID": "1033",
      "USUBJID": "01-701-1033",
      "TRTP": "Xanomeline Low Dose",
      "TRTPN": 54.0,
      "TRTA": "Xanomeline Low Dose",
      "TRTAN": 54.0,
      "TRTSDT": 19800.0,
      "TRTEDT": 19813.0,
      "AGE": 74.0,
      "AGEGR1": "65-80",
      "AGEGR1N": 2.0,
      "RACE": "WHITE",
      "RACEN": 1.0,
      "SEX": "M",
      "COMP24FL": "N",
      "DSRAEFL": "",
      "SAFFL": "Y",
      "AVISIT": "Week 2",
      "AVISITN": 2.0,
      "ADY": NaN,
      "ADT": NaN,
      "VISIT": "",
      "VISITNUM": NaN,
      "PARAMTYP": "DERIVED",
      "PARAM": "Transaminase 1.5 x ULN",
      "PARAMCD": "TRANSHY",
      "PARAMN": 5.0,
      "PARCAT1": "HYLAW",
      "AVAL": 5.397605346934028e-79,
      "BASE": 5.397605346934028e-79,
      "A1LO": NaN,
      "A1HI": NaN,
      "R2A1LO": NaN,
      "R2A1HI": NaN,
      "BR2A1LO": NaN,
      "BR2A1HI": NaN,
      "ABLFL": "",
      "SHIFT1": "Normal to Normal",
      "SHIFT1N": 1.0,
      "CRIT1": "",
      "CRIT1FL": "",
      "CRIT1FN": NaN
    },
    {
      "STUDYID": "CDISCPILOT01",
      "SUBJID": "1033",
      "USUBJID": "01-701-1033",
      "TRTP": "Xanomeline Low Dose",
      "TRTPN": 54.0,
      "TRTA": "Xanomeline Low Dose",
      "TRTAN": 54.0,
      "TRTSDT": 19800.0,
      "TRTEDT": 19813.0,
      "AGE": 74.0,
      "AGEGR1": "65-80",
      "AGEGR1N": 2.0,
      "RACE": "WHITE",
      "RACEN": 1.0,
      "SEX": "M",
      "COMP24FL": "N",
      "DSRAEFL": "",
      "SAFFL": "Y",
      "AVISIT": "Week 2",
      "AVISITN": 2.0,
      "ADY": NaN,
      "ADT": NaN,
      "VISIT": "",
      "VISITNUM": NaN,
      "PARAMTYP": "DERIVED",
      "PARAM": "Total Bili 1.5 x ULN and Transaminase 1.5 x ULN",
      "PARAMCD": "HYLAW",
      "PARAMN": 6.0,
      "PARCAT1": "HYLAW",
      "AVAL": 5.397605346934028e-79,
      "BASE": 5.397605346934028e-79,
      "A1LO": NaN,
      "A1HI": NaN,
      "R2A1LO": NaN,
      "R2A1HI": NaN,
      "BR2A1LO": NaN,
      "BR2A1HI": NaN,
      "ABLFL": "",
      "SHIFT1": "Normal to Normal",
      "SHIFT1N": 1.0,
      "CRIT1": "",
      "CRIT1FL": "",
      "CRIT1FN": NaN
    },
    {
      "STUDYID": "CDISCPILOT01",
      "SUBJID": "1033",
      "USUBJID": "01-701-1033",
      "TRTP": "Xanomeline Low Dose",
      "TRTPN": 54.0,
      "TRTA": "Xanomeline Low Dose",
      "TRTAN": 54.0,
      "TRTSDT": 19800.0,
      "TRTEDT": 19813.0,
      "AGE": 74.0,
      "AGEGR1": "65-80",
      "AGEGR1N": 2.0,
      "RACE": "WHITE",
      "RACEN": 1.0,
      "SEX": "M",
      "COMP24FL": "N",
      "DSRAEFL": "",
      "SAFFL": "Y",
      "AVISIT": "Week 4",
      "AVISITN": 4.0,
      "ADY": 28.0,
      "ADT": 19827.0,
      "VISIT": "WEEK 4",
      "VISITNUM": 5.0,
      "PARAMTYP": "",
      "PARAM": "Alanine Aminotransferase (U/L)",
      "PARAMCD": "ALT",
      "PARAMN": 1.0,
      "PARCAT1": "CHEM",
      "AVAL": 14.0,
      "BASE": 16.0,
      "A1LO": 6.0,
      "A1HI": 35.0,
      "R2A1LO": 2.3333333333333335,
      "R2A1HI": 0.4,
      "BR2A1LO": 2.6666666666666665,
      "BR2A1HI": 0.45714285714285713,
      "ABLFL": "",
      "SHIFT1": "",
      "SHIFT1N": NaN,
      "CRIT1": "R2A1HI > 1.5",
      "CRIT1FL": "N",
      "CRIT1FN": 5.397605346934028e-79
    },
    {
      "STUDYID": "CDISCPILOT01",
      "SUBJID": "1033",
      "USUBJID": "01-701-1033",
      "TRTP": "Xanomeline Low Dose",
      "TRTPN": 54.0,
      "TRTA": "Xanomeline Low Dose",
      "TRTAN": 54.0,
      "TRTSDT": 19800.0,
      "TRTEDT": 19813.0,
      "AGE": 74.0,
      "AGEGR1": "65-80",
      "AGEGR1N": 2.0,
      "RACE": "WHITE",
      "RACEN": 1.0,
      "SEX": "M",
      "COMP24FL": "N",
      "DSRAEFL": "",
      "SAFFL": "Y",
      "AVISIT": "Week 4",
      "AVISITN": 4.0,
      "ADY": 28.0,
      "ADT": 19827.0,
      "VISIT": "WEEK 4",
      "VISITNUM": 5.0,
      "PARAMTYP": "",
      "PARAM": "Aspartate Aminotransferase (U/L)",
      "PARAMCD": "AST",
      "PARAMN": 2.0,
      "PARCAT1": "CHEM",
      "AVAL": 20.0,
      "BASE": 20.0,
      "A1LO": 11.0,
      "A1HI": 36.0,
      "R2A1LO": 1.8181818181818181,
      "R2A1HI": 0.5555555555555556,
      "BR2A1LO": 1.8181818181818181,
      "BR2A1HI": 0.5555555555555556,
      "ABLFL": "",
      "SHIFT1": "",
      "SHIFT1N": NaN,
      "CRIT1": "R2A1HI > 1.5",
      "CRIT1FL": "N",
      "CRIT1FN": 5.397605346934028e-79
    },
    {
      "STUDYID": "CDISCPILOT01",
      "SUBJID": "1033",
      "USUBJID": "01-701-1033",
      "TRTP": "Xanomeline Low Dose",
      "TRTPN": 54.0,
      "TRTA": "Xanomeline Low Dose",
      "TRTAN": 54.0,
      "TRTSDT": 19800.0,
      "TRTEDT": 19813.0,
      "AGE": 74.0,
      "AGEGR1": "65-80",
      "AGEGR1N": 2.0,
      "RACE": "WHITE",
      "RACEN": 1.0,
      "SEX": "M",
      "COMP24FL": "N",
      "DSRAEFL": "",
      "SAFFL": "Y",
      "AVISIT": "Week 4",
      "AVISITN": 4.0,
      "ADY": 28.0,
      "ADT": 19827.0,
      "VISIT": "WEEK 4",
      "VISITNUM": 5.0,
      "PARAMTYP": "",
      "PARAM": "Bilirubin (umol/L)",
      "PARAMCD": "BILI",
      "PARAMN": 3.0,
      "PARCAT1": "CHEM",
      "AVAL": 15.389999999999999,
      "BASE": 13.68,
      "A1LO": 3.0,
      "A1HI": 21.0,
      "R2A1LO": 5.13,
      "R2A1HI": 0.7328571428571428,
      "BR2A1LO": 4.56,
      "BR2A1HI": 0.6514285714285715,
      "ABLFL": "",
      "SHIFT1": "",
      "SHIFT1N": NaN,
      "CRIT1": "R2A1HI > 1.5",
      "CRIT1FL": "N",
      "CRIT1FN": 5.397605346934028e-79
    },
    {
      "STUDYID": "CDISCPILOT01",
      "SUBJID": "1033",
      "USUBJID": "01-701-1033",
      "TRTP": "Xanomeline Low Dose",
      "TRTPN": 54.0,
      "TRTA": "Xanomeline Low Dose",
      "TRTAN": 54.0,
      "TRTSDT": 19800.0,
      "TRTEDT": 19813.0,
      "AGE": 74.0,
      "AGEGR1": "65-80",
      "AGEGR1N": 2.0,
      "RACE": "WHITE",
      "RACEN": 1.0,
      "SEX": "M",
      "COMP24FL": "N",
      "DSRAEFL": "",
      "SAFFL": "Y",
      "AVISIT": "Week 4",
      "AVISITN": 4.0,
      "ADY": NaN,
      "ADT": NaN,
      "VISIT": "",
      "VISITNUM": NaN,
      "PARAMTYP": "DERIVED",
      "PARAM": "Bilirubin 1.5 x ULN",
      "PARAMCD": "BILIHY",
      "PARAMN": 4.0,
      "PARCAT1": "HYLAW",
      "AVAL": 5.397605346934028e-79,
      "BASE": 5.397605346934028e-79,
      "A1LO": NaN,
      "A1HI": NaN,
      "R2A1LO": NaN,
      "R2A1HI": NaN,
      "BR2A1LO": NaN,
      "BR2A1HI": NaN,
      "ABLFL": "",
      "SHIFT1": "Normal to Normal",
      "SHIFT1N": 1.0,
      "CRIT1": "",
      "CRIT1FL": "",
      "CRIT1FN": NaN
    },
    {
      "STUDYID": "CDISCPILOT01",
      "SUBJID": "1033",
      "USUBJID": "01-701-1033",
      "TRTP": "Xanomeline Low Dose",
      "TRTPN": 54.0,
      "TRTA": "Xanomeline Low Dose",
      "TRTAN": 54.0,
      "TRTSDT": 19800.0,
      "TRTEDT": 19813.0,
      "AGE": 74.0,
      "AGEGR1": "65-80",
      "AGEGR1N": 2.0,
      "RACE": "WHITE",
      "RACEN": 1.0,
      "SEX": "M",
      "COMP24FL": "N",
      "DSRAEFL": "",
      "SAFFL": "Y",
      "AVISIT": "Week 4",
      "AVISITN": 4.0,
      "ADY": NaN,
      "ADT": NaN,
      "VISIT": "",
      "VISITNUM": NaN,
      "PARAMTYP": "DERIVED",
      "PARAM": "Transaminase 1.5 x ULN",
      "PARAMCD": "TRANSHY",
      "PARAMN": 5.0,
      "PARCAT1": "HYLAW",
      "AVAL": 5.397605346934028e-79,
      "BASE": 5.397605346934028e-79,
      "A1LO": NaN,
      "A1HI": NaN,
      "R2A1LO": NaN,
      "R2A1HI": NaN,
      "BR2A1LO": NaN,
      "BR2A1HI": NaN,
      "ABLFL": "",
      "SHIFT1": "Normal to Normal",
      "SHIFT1N": 1.0,
      "CRIT1": "",
      "CRIT1FL": "",
      "CRIT1FN": NaN
    },
    {
      "STUDYID": "CDISCPILOT01",
      "SUBJID": "1033",
      "USUBJID": "01-701-1033",
      "TRTP": "Xanomeline Low Dose",
      "TRTPN": 54.0,
      "TRTA": "Xanomeline Low Dose",
      "TRTAN": 54.0,
      "TRTSDT": 19800.0,
      "TRTEDT": 19813.0,
      "AGE": 74.0,
      "AGEGR1": "65-80",
      "AGEGR1N": 2.0,
      "RACE": "WHITE",
      "RACEN": 1.0,
      "SEX": "M",
      "COMP24FL": "N",
      "DSRAEFL": "",
      "SAFFL": "Y",
      "AVISIT": "Week 4",
      "AVISITN": 4.0,
      "ADY": NaN,
      "ADT": NaN,
      "VISIT": "",
      "VISITNUM": NaN,
      "PARAMTYP": "DERIVED",
      "PARAM": "Total Bili 1.5 x ULN and Transaminase 1.5 x ULN",
      "PARAMCD": "HYLAW",
      "PARAMN": 6.0,
      "PARCAT1": "HYLAW",
      "AVAL": 5.397605346934028e-79,
      "BASE": 5.397605346934028e-79,
      "A1LO": NaN,
      "A1HI": NaN,
      "R2A1LO": NaN,
      "R2A1HI": NaN,
      "BR2A1LO": NaN,
      "BR2A1HI": NaN,
      "ABLFL": "",
      "SHIFT1": "Normal to Normal",
      "SHIFT1N": 1.0,
      "CRIT1": "",
      "CRIT1FL": "",
      "CRIT1FN": NaN
    },
    {
      "STUDYID": "CDISCPILOT01",
      "SUBJID": "1034",
      "USUBJID": "01-701-1034",
      "TRTP": "Xanomeline High Dose",
      "TRTPN": 81.0,
      "TRTA": "Xanomeline High Dose",
      "TRTAN": 81.0,
      "TRTSDT": 19905.0,
      "TRTEDT": 20087.0,
      "AGE": 77.0,
      "AGEGR1": "65-80",
      "AGEGR1N": 2.0,
      "RACE": "WHITE",
      "RACEN": 1.0,
      "SEX": "F",
      "COMP24FL": "Y",
      "DSRAEFL": "",
      "SAFFL": "Y",
      "AVISIT": "Baseline",
      "AVISITN": 5.397605346934028e-79,
      "ADY": -7.0,
      "ADT": 19898.0,
      "VISIT": "SCREENING 1",
      "VISITNUM": 1.0,
      "PARAMTYP": "",
      "PARAM": "Alanine Aminotransferase (U/L)",
      "PARAMCD": "ALT",
      "PARAMN": 1.0,
      "PARCAT1": "CHEM",
      "AVAL": 15.0,
      "BASE": 15.0,
      "A1LO": 6.0,
      "A1HI": 32.0,
      "R2A1LO": 2.5,
      "R2A1HI": 0.46875,
      "BR2A1LO": 2.5,
      "BR2A1HI": 0.46875,
      "ABLFL": "Y",
      "SHIFT1": "",
      "SHIFT1N": NaN,
      "CRIT1": "R2A1HI > 1.5",
      "CRIT1FL": "N",
      "CRIT1FN": 5.397605346934028e-79
    },
    {
      "STUDYID": "CDISCPILOT01",
      "SUBJID": "1034",
      "USUBJID": "01-701-1034",
      "TRTP": "Xanomeline High Dose",
      "TRTPN": 81.0,
      "TRTA": "Xanomeline High Dose",
      "TRTAN": 81.0,
      "TRTSDT": 19905.0,
      "TRTEDT": 20087.0,
      "AGE": 77.0,
      "AGEGR1": "65-80",
      "AGEGR1N": 2.0,
      "RACE": "WHITE",
      "RACEN": 1.0,
      "SEX": "F",
      "COMP24FL": "Y",
      "DSRAEFL": "",
      "SAFFL": "Y",
      "AVISIT": "Baseline",
      "AVISITN": 5.397605346934028e-79,
      "ADY": -7.0,
      "ADT": 19898.0,
      "VISIT": "SCREENING 1",
      "VISITNUM": 1.0,
      "PARAMTYP": "",
      "PARAM": "Aspartate Aminotransferase (U/L)",
      "PARAMCD": "AST",
      "PARAMN": 2.0,
      "PARCAT1": "CHEM",
      "AVAL": 23.0,
      "BASE": 23.0,
      "A1LO": 9.0,
      "A1HI": 34.0,
      "R2A1LO": 2.5555555555555554,
      "R2A1HI": 0.6764705882352942,
      "BR2A1LO": 2.5555555555555554,
      "BR2A1HI": 0.6764705882352942,
      "ABLFL": "Y",
      "SHIFT1": "",
      "SHIFT1N": NaN,
      "CRIT1": "R2A1HI > 1.5",
      "CRIT1FL": "N",
      "CRIT1FN": 5.397605346934028e-79
    },
    {
      "STUDYID": "CDISCPILOT01",
      "SUBJID": "1034",
      "USUBJID": "01-701-1034",
      "TRTP": "Xanomeline High Dose",
      "TRTPN": 81.0,
      "TRTA": "Xanomeline High Dose",
      "TRTAN": 81.0,
      "TRTSDT": 19905.0,
      "TRTEDT": 20087.0,
      "AGE": 77.0,
      "AGEGR1": "65-80",
      "AGEGR1N": 2.0,
      "RACE": "WHITE",
      "RACEN": 1.0,
      "SEX": "F",
      "COMP24FL": "Y",
      "DSRAEFL": "",
      "SAFFL": "Y",
      "AVISIT": "Baseline",
      "AVISITN": 5.397605346934028e-79,
      "ADY": -7.0,
      "ADT": 19898.0,
      "VISIT": "SCREENING 1",
      "VISITNUM": 1.0,
      "PARAMTYP": "",
      "PARAM": "Bilirubin (umol/L)",
      "PARAMCD": "BILI",
      "PARAMN": 3.0,
      "PARCAT1": "CHEM",
      "AVAL": 10.26,
      "BASE": 10.26,
      "A1LO": 3.0,
      "A1HI": 21.0,
      "R2A1LO": 3.42,
      "R2A1HI": 0.48857142857142855,
      "BR2A1LO": 3.42,
      "BR2A1HI": 0.48857142857142855,
      "ABLFL": "Y",
      "SHIFT1": "",
      "SHIFT1N": NaN,
      "CRIT1": "R2A1HI > 1.5",
      "CRIT1FL": "N",
      "CRIT1FN": 5.397605346934028e-79
    },
    {
      "STUDYID": "CDISCPILOT01",
      "SUBJID": "1034",
      "USUBJID": "01-701-1034",
      "TRTP": "Xanomeline High Dose",
      "TRTPN": 81.0,
      "TRTA": "Xanomeline High Dose",
      "TRTAN": 81.0,
      "TRTSDT": 19905.0,
      "TRTEDT": 20087.0,
      "AGE": 77.0,
      "AGEGR1": "65-80",
      "AGEGR1N": 2.0,
      "RACE": "WHITE",
      "RACEN": 1.0,
      "SEX": "F",
      "COMP24FL": "Y",
      "DSRAEFL": "",
      "SAFFL": "Y",
      "AVISIT": "Baseline",
      "AVISITN": 5.397605346934028e-79,
      "ADY": NaN,
      "ADT": NaN,
      "VISIT": "",
      "VISITNUM": NaN,
      "PARAMTYP": "DERIVED",
      "PARAM": "Bilirubin 1.5 x ULN",
      "PARAMCD": "BILIHY",
      "PARAMN": 4.0,
      "PARCAT1": "HYLAW",
      "AVAL": 5.397605346934028e-79,
      "BASE": 5.397605346934028e-79,
      "A1LO": NaN,
      "A1HI": NaN,
      "R2A1LO": NaN,
      "R2A1HI": NaN,
      "BR2A1LO": NaN,
      "BR2A1HI": NaN,
      "ABLFL": "Y",
      "SHIFT1": "Normal to Normal",
      "SHIFT1N": 1.0,
      "CRIT1": "",
      "CRIT1FL": "",
      "CRIT1FN": NaN
    },
    {
      "STUDYID": "CDISCPILOT01",
      "SUBJID": "1034",
      "USUBJID": "01-701-1034",
      "TRTP": "Xanomeline High Dose",
      "TRTPN": 81.0,
      "TRTA": "Xanomeline High Dose",
      "TRTAN": 81.0,
      "TRTSDT": 19905.0,
      "TRTEDT": 20087.0,
      "AGE": 77.0,
      "AGEGR1": "65-80",
      "AGEGR1N": 2.0,
      "RACE": "WHITE",
      "RACEN": 1.0,
      "SEX": "F",
      "COMP24FL": "Y",
      "DSRAEFL": "",
      "SAFFL": "Y",
      "AVISIT": "Baseline",
      "AVISITN": 5.397605346934028e-79,
      "ADY": NaN,
      "ADT": NaN,
      "VISIT": "",
      "VISITNUM": NaN,
      "PARAMTYP": "DERIVED",
      "PARAM": "Transaminase 1.5 x ULN",
      "PARAMCD": "TRANSHY",
      "PARAMN": 5.0,
      "PARCAT1": "HYLAW",
      "AVAL": 5.397605346934028e-79,
      "BASE": 5.397605346934028e-79,
      "A1LO": NaN,
      "A1HI": NaN,
      "R2A1LO": NaN,
      "R2A1HI": NaN,
      "BR2A1LO": NaN,
      "BR2A1HI": NaN,
      "ABLFL": "Y",
      "SHIFT1": "Normal to Normal",
      "SHIFT1N": 1.0,
      "CRIT1": "",
      "CRIT1FL": "",
      "CRIT1FN": NaN
    },
    {
      "STUDYID": "CDISCPILOT01",
      "SUBJID": "1034",
      "USUBJID": "01-701-1034",
      "TRTP": "Xanomeline High Dose",
      "TRTPN": 81.0,
      "TRTA": "Xanomeline High Dose",
      "TRTAN": 81.0,
      "TRTSDT": 19905.0,
      "TRTEDT": 20087.0,
      "AGE": 77.0,
      "AGEGR1": "65-80",
      "AGEGR1N": 2.0,
      "RACE": "WHITE",
      "RACEN": 1.0,
      "SEX": "F",
      "COMP24FL": "Y",
      "DSRAEFL": "",
      "SAFFL": "Y",
      "AVISIT": "Baseline",
      "AVISITN": 5.397605346934028e-79,
      "ADY": NaN,
      "ADT": NaN,
      "VISIT": "",
      "VISITNUM": NaN,
      "PARAMTYP": "DERIVED",
      "PARAM": "Total Bili 1.5 x ULN and Transaminase 1.5 x ULN",
      "PARAMCD": "HYLAW",
      "PARAMN": 6.0,
      "PARCAT1": "HYLAW",
      "AVAL": 5.397605346934028e-79,
      "BASE": 5.397605346934028e-79,
      "A1LO": NaN,
      "A1HI": NaN,
      "R2A1LO": NaN,
      "R2A1HI": NaN,
      "BR2A1LO": NaN,
      "BR2A1HI": NaN,
      "ABLFL": "Y",
      "SHIFT1": "Normal to Normal",
      "SHIFT1N": 1.0,
      "CRIT1": "",
      "CRIT1FL": "",
      "CRIT1FN": NaN
    },
    {
      "STUDYID": "CDISCPILOT01",
      "SUBJID": "1034",
      "USUBJID": "01-701-1034",
      "TRTP": "Xanomeline High Dose",
      "TRTPN": 81.0,
      "TRTA": "Xanomeline High Dose",
      "TRTAN": 81.0,
      "TRTSDT": 19905.0,
      "TRTEDT": 20087.0,
      "AGE": 77.0,
      "AGEGR1": "65-80",
      "AGEGR1N": 2.0,
      "RACE": "WHITE",
      "RACEN": 1.0,
      "SEX": "F",
      "COMP24FL": "Y",
      "DSRAEFL": "",
      "SAFFL": "Y",
      "AVISIT": "Week 2",
      "AVISITN": 2.0,
      "ADY": 15.0,
      "ADT": 19919.0,
      "VISIT": "WEEK 2",
      "VISITNUM": 4.0,
      "PARAMTYP": "",
      "PARAM": "Alanine Aminotransferase (U/L)",
      "PARAMCD": "ALT",
      "PARAMN": 1.0,
      "PARCAT1": "CHEM",
      "AVAL": 19.0,
      "BASE": 15.0,
      "A1LO": 6.0,
      "A1HI": 32.0,
      "R2A1LO": 3.1666666666666665,
      "R2A1HI": 0.59375,
      "BR2A1LO": 2.5,
      "BR2A1HI": 0.46875,
      "ABLFL": "",
      "SHIFT1": "",
      "SHIFT1N": NaN,
      "CRIT1": "R2A1HI > 1.5",
      "CRIT1FL": "N",
      "CRIT1FN": 5.397605346934028e-79
    },
    {
      "STUDYID": "CDISCPILOT01",
      "SUBJID": "1034",
      "USUBJID": "01-701-1034",
      "TRTP": "Xanomeline High Dose",
      "TRTPN": 81.0,
      "TRTA": "Xanomeline High Dose",
      "TRTAN": 81.0,
      "TRTSDT": 19905.0,
      "TRTEDT": 20087.0,
      "AGE": 77.0,
      "AGEGR1": "65-80",
      "AGEGR1N": 2.0,
      "RACE": "WHITE",
      "RACEN": 1.0,
      "SEX": "F",
      "COMP24FL": "Y",
      "DSRAEFL": "",
      "SAFFL": "Y",
      "AVISIT": "Week 2",
      "AVISITN": 2.0,
      "ADY": 15.0,
      "ADT": 19919.0,
      "VISIT": "WEEK 2",
      "VISITNUM": 4.0,
      "PARAMTYP": "",
      "PARAM": "Aspartate Aminotransferase (U/L)",
      "PARAMCD": "AST",
      "PARAMN": 2.0,
      "PARCAT1": "CHEM",
      "AVAL": 23.0,
      "BASE": 23.0,
      "A1LO": 9.0,
      "A1HI": 34.0,
      "R2A1LO": 2.5555555555555554,
      "R2A1HI": 0.6764705882352942,
      "BR2A1LO": 2.5555555555555554,
      "BR2A1HI": 0.6764705882352942,
      "ABLFL": "",
      "SHIFT1": "",
      "SHIFT1N": NaN,
      "CRIT1": "R2A1HI > 1.5",
      "CRIT1FL": "N",
      "CRIT1FN": 5.397605346934028e-79
    },
    {
      "STUDYID": "CDISCPILOT01",
      "SUBJID": "1034",
      "USUBJID": "01-701-1034",
      "TRTP": "Xanomeline High Dose",
      "TRTPN": 81.0,
      "TRTA": "Xanomeline High Dose",
      "TRTAN": 81.0,
      "TRTSDT": 19905.0,
      "TRTEDT": 20087.0,
      "AGE": 77.0,
      "AGEGR1": "65-80",
      "AGEGR1N": 2.0,
      "RACE": "WHITE",
      "RACEN": 1.0,
      "SEX": "F",
      "COMP24FL": "Y",
      "DSRAEFL": "",
      "SAFFL": "Y",
      "AVISIT": "Week 2",
      "AVISITN": 2.0,
      "ADY": 15.0,
      "ADT": 19919.0,
      "VISIT": "WEEK 2",
      "VISITNUM": 4.0,
      "PARAMTYP": "",
      "PARAM": "Bilirubin (umol/L)",
      "PARAMCD": "BILI",
      "PARAMN": 3.0,
      "PARCAT1": "CHEM",
      "AVAL": 6.84,
      "BASE": 10.26,
      "A1LO": 3.0,
      "A1HI": 21.0,
      "R2A1LO": 2.28,
      "R2A1HI": 0.32571428571428573,
      "BR2A1LO": 3.42,
      "BR2A1HI": 0.48857142857142855,
      "ABLFL": "",
      "SHIFT1": "",
      "SHIFT1N": NaN,
      "CRIT1": "R2A1HI > 1.5",
      "CRIT1FL": "N",
      "CRIT1FN": 5.397605346934028e-79
    },
    {
      "STUDYID": "CDISCPILOT01",
      "SUBJID": "1034",
      "USUBJID": "01-701-1034",
      "TRTP": "Xanomeline High Dose",
      "TRTPN": 81.0,
      "TRTA": "Xanomeline High Dose",
      "TRTAN": 81.0,
      "TRTSDT": 19905.0,
      "TRTEDT": 20087.0,
      "AGE": 77.0,
      "AGEGR1": "65-80",
      "AGEGR1N": 2.0,
      "RACE": "WHITE",
      "RACEN": 1.0,
      "SEX": "F",
      "COMP24FL": "Y",
      "DSRAEFL": "",
      "SAFFL": "Y",
      "AVISIT": "Week 2",
      "AVISITN": 2.0,
      "ADY": NaN,
      "ADT": NaN,
      "VISIT": "",
      "VISITNUM": NaN,
      "PARAMTYP": "DERIVED",
      "PARAM": "Bilirubin 1.5 x ULN",
      "PARAMCD": "BILIHY",
      "PARAMN": 4.0,
      "PARCAT1": "HYLAW",
      "AVAL": 5.397605346934028e-79,
      "BASE": 5.397605346934028e-79,
      "A1LO": NaN,
      "A1HI": NaN,
      "R2A1LO": NaN,
      "R2A1HI": NaN,
      "BR2A1LO": NaN,
      "BR2A1HI": NaN,
      "ABLFL": "",
      "SHIFT1": "Normal to Normal",
      "SHIFT1N": 1.0,
      "CRIT1": "",
      "CRIT1FL": "",
      "CRIT1FN": NaN
    },
    {
      "STUDYID": "CDISCPILOT01",
      "SUBJID": "1034",
      "USUBJID": "01-701-1034",
      "TRTP": "Xanomeline High Dose",
      "TRTPN": 81.0,
      "TRTA": "Xanomeline High Dose",
      "TRTAN": 81.0,
      "TRTSDT": 19905.0,
      "TRTEDT": 20087.0,
      "AGE": 77.0,
      "AGEGR1": "65-80",
      "AGEGR1N": 2.0,
      "RACE": "WHITE",
      "RACEN": 1.0,
      "SEX": "F",
      "COMP24FL": "Y",
      "DSRAEFL": "",
      "SAFFL": "Y",
      "AVISIT": "Week 2",
      "AVISITN": 2.0,
      "ADY": NaN,
      "ADT": NaN,
      "VISIT": "",
      "VISITNUM": NaN,
      "PARAMTYP": "DERIVED",
      "PARAM": "Transaminase 1.5 x ULN",
      "PARAMCD": "TRANSHY",
      "PARAMN": 5.0,
      "PARCAT1": "HYLAW",
      "AVAL": 5.397605346934028e-79,
      "BASE": 5.397605346934028e-79,
      "A1LO": NaN,
      "A1HI": NaN,
      "R2A1LO": NaN,
      "R2A1HI": NaN,
      "BR2A1LO": NaN,
      "BR2A1HI": NaN,
      "ABLFL": "",
      "SHIFT1": "Normal to Normal",
      "SHIFT1N": 1.0,
      "CRIT1": "",
      "CRIT1FL": "",
      "CRIT1FN": NaN
    },
    {
      "STUDYID": "CDISCPILOT01",
      "SUBJID": "1034",
      "USUBJID": "01-701-1034",
      "TRTP": "Xanomeline High Dose",
      "TRTPN": 81.0,
      "TRTA": "Xanomeline High Dose",
      "TRTAN": 81.0,
      "TRTSDT": 19905.0,
      "TRTEDT": 20087.0,
      "AGE": 77.0,
      "AGEGR1": "65-80",
      "AGEGR1N": 2.0,
      "RACE": "WHITE",
      "RACEN": 1.0,
      "SEX": "F",
      "COMP24FL": "Y",
      "DSRAEFL": "",
      "SAFFL": "Y",
      "AVISIT": "Week 2",
      "AVISITN": 2.0,
      "ADY": NaN,
      "ADT": NaN,
      "VISIT": "",
      "VISITNUM": NaN,
      "PARAMTYP": "DERIVED",
      "PARAM": "Total Bili 1.5 x ULN and Transaminase 1.5 x ULN",
      "PARAMCD": "HYLAW",
      "PARAMN": 6.0,
      "PARCAT1": "HYLAW",
      "AVAL": 5.397605346934028e-79,
      "BASE": 5.397605346934028e-79,
      "A1LO": NaN,
      "A1HI": NaN,
      "R2A1LO": NaN,
      "R2A1HI": NaN,
      "BR2A1LO": NaN,
      "BR2A1HI": NaN,
      "ABLFL": "",
      "SHIFT1": "Normal to Normal",
      "SHIFT1N": 1.0,
      "CRIT1": "",
      "CRIT1FL": "",
      "CRIT1FN": NaN
    },
    {
      "STUDYID": "CDISCPILOT01",
      "SUBJID": "1034",
      "USUBJID": "01-701-1034",
      "TRTP": "Xanomeline High Dose",
      "TRTPN": 81.0,
      "TRTA": "Xanomeline High Dose",
      "TRTAN": 81.0,
      "TRTSDT": 19905.0,
      "TRTEDT": 20087.0,
      "AGE": 77.0,
      "AGEGR1": "65-80",
      "AGEGR1N": 2.0,
      "RACE": "WHITE",
      "RACEN": 1.0,
      "SEX": "F",
      "COMP24FL": "Y",
      "DSRAEFL": "",
      "SAFFL": "Y",
      "AVISIT": "Week 4",
      "AVISITN": 4.0,
      "ADY": 29.0,
      "ADT": 19933.0,
      "VISIT": "WEEK 4",
      "VISITNUM": 5.0,
      "PARAMTYP": "",
      "PARAM": "Alanine Aminotransferase (U/L)",
      "PARAMCD": "ALT",
      "PARAMN": 1.0,
      "PARCAT1": "CHEM",
      "AVAL": 21.0,
      "BASE": 15.0,
      "A1LO": 6.0,
      "A1HI": 32.0,
      "R2A1LO": 3.5,
      "R2A1HI": 0.65625,
      "BR2A1LO": 2.5,
      "BR2A1HI": 0.46875,
      "ABLFL": "",
      "SHIFT1": "",
      "SHIFT1N": NaN,
      "CRIT1": "R2A1HI > 1.5",
      "CRIT1FL": "N",
      "CRIT1FN": 5.397605346934028e-79
    },
    {
      "STUDYID": "CDISCPILOT01",
      "SUBJID": "1034",
      "USUBJID": "01-701-1034",
      "TRTP": "Xanomeline High Dose",
      "TRTPN": 81.0,
      "TRTA": "Xanomeline High Dose",
      "TRTAN": 81.0,
      "TRTSDT": 19905.0,
      "TRTEDT": 20087.0,
      "AGE": 77.0,
      "AGEGR1": "65-80",
      "AGEGR1N": 2.0,
      "RACE": "WHITE",
      "RACEN": 1.0,
      "SEX": "F",
      "COMP24FL": "Y",
      "DSRAEFL": "",
      "SAFFL": "Y",
      "AVISIT": "Week 4",
      "AVISITN": 4.0,
      "ADY": 29.0,
      "ADT": 19933.0,
      "VISIT": "WEEK 4",
      "VISITNUM": 5.0,
      "PARAMTYP": "",
      "PARAM": "Aspartate Aminotransferase (U/L)",
      "PARAMCD": "AST",
      "PARAMN": 2.0,
      "PARCAT1": "CHEM",
      "AVAL": 25.0,
      "BASE": 23.0,
      "A1LO": 9.0,
      "A1HI": 34.0,
      "R2A1LO": 2.7777777777777777,
      "R2A1HI": 0.7352941176470589,
      "BR2A1LO": 2.5555555555555554,
      "BR2A1HI": 0.6764705882352942,
      "ABLFL": "",
      "SHIFT1": "",
      "SHIFT1N": NaN,
      "CRIT1": "R2A1HI > 1.5",
      "CRIT1FL": "N",
      "CRIT1FN": 5.397605346934028e-79
    },
    {
      "STUDYID": "CDISCPILOT01",
      "SUBJID": "1034",
      "USUBJID": "01-701-1034",
      "TRTP": "Xanomeline High Dose",
      "TRTPN": 81.0,
      "TRTA": "Xanomeline High Dose",
      "TRTAN": 81.0,
      "TRTSDT": 19905.0,
      "TRTEDT": 20087.0,
      "AGE": 77.0,
      "AGEGR1": "65-80",
      "AGEGR1N": 2.0,
      "RACE": "WHITE",
      "RACEN": 1.0,
      "SEX": "F",
      "COMP24FL": "Y",
      "DSRAEFL": "",
      "SAFFL": "Y",
      "AVISIT": "Week 4",
      "AVISITN": 4.0,
      "ADY": 29.0,
      "ADT": 19933.0,
      "VISIT": "WEEK 4",
      "VISITNUM": 5.0,
      "PARAMTYP": "",
      "PARAM": "Bilirubin (umol/L)",
      "PARAMCD": "BILI",
      "PARAMN": 3.0,
      "PARCAT1": "CHEM",
      "AVAL": 6.84,
      "BASE": 10.26,
      "A1LO": 3.0,
      "A1HI": 21.0,
      "R2A1LO": 2.28,
      "R2A1HI": 0.32571428571428573,
      "BR2A1LO": 3.42,
      "BR2A1HI": 0.48857142857142855,
      "ABLFL": "",
      "SHIFT1": "",
      "SHIFT1N": NaN,
      "CRIT1": "R2A1HI > 1.5",
      "CRIT1FL": "N",
      "CRIT1FN": 5.397605346934028e-79
    },
    {
      "STUDYID": "CDISCPILOT01",
      "SUBJID": "1034",
      "USUBJID": "01-701-1034",
      "TRTP": "Xanomeline High Dose",
      "TRTPN": 81.0,
      "TRTA": "Xanomeline High Dose",
      "TRTAN": 81.0,
      "TRTSDT": 19905.0,
      "TRTEDT": 20087.0,
      "AGE": 77.0,
      "AGEGR1": "65-80",
      "AGEGR1N": 2.0,
      "RACE": "WHITE",
      "RACEN": 1.0,
      "SEX": "F",
      "COMP24FL": "Y",
      "DSRAEFL": "",
      "SAFFL": "Y",
      "AVISIT": "Week 4",
      "AVISITN": 4.0,
      "ADY": NaN,
      "ADT": NaN,
      "VISIT": "",
      "VISITNUM": NaN,
      "PARAMTYP": "DERIVED",
      "PARAM": "Bilirubin 1.5 x ULN",
      "PARAMCD": "BILIHY",
      "PARAMN": 4.0,
      "PARCAT1": "HYLAW",
      "AVAL": 5.397605346934028e-79,
      "BASE": 5.397605346934028e-79,
      "A1LO": NaN,
      "A1HI": NaN,
      "R2A1LO": NaN,
      "R2A1HI": NaN,
      "BR2A1LO": NaN,
      "BR2A1HI": NaN,
      "ABLFL": "",
      "SHIFT1": "Normal to Normal",
      "SHIFT1N": 1.0,
      "CRIT1": "",
      "CRIT1FL": "",
      "CRIT1FN": NaN
    },
    {
      "STUDYID": "CDISCPILOT01",
      "SUBJID": "1034",
      "USUBJID": "01-701-1034",
      "TRTP": "Xanomeline High Dose",
      "TRTPN": 81.0,
      "TRTA": "Xanomeline High Dose",
      "TRTAN": 81.0,
      "TRTSDT": 19905.0,
      "TRTEDT": 20087.0,
      "AGE": 77.0,
      "AGEGR1": "65-80",
      "AGEGR1N": 2.0,
      "RACE": "WHITE",
      "RACEN": 1.0,
      "SEX": "F",
      "COMP24FL": "Y",
      "DSRAEFL": "",
      "SAFFL": "Y",
      "AVISIT": "Week 4",
      "AVISITN": 4.0,
      "ADY": NaN,
      "ADT": NaN,
      "VISIT": "",
      "VISITNUM": NaN,
      "PARAMTYP": "DERIVED",
      "PARAM": "Transaminase 1.5 x ULN",
      "PARAMCD": "TRANSHY",
      "PARAMN": 5.0,
      "PARCAT1": "HYLAW",
      "AVAL": 5.397605346934028e-79,
      "BASE": 5.397605346934028e-79,
      "A1LO": NaN,
      "A1HI": NaN,
      "R2A1LO": NaN,
      "R2A1HI": NaN,
      "BR2A1LO": NaN,
      "BR2A1HI": NaN,
      "ABLFL": "",
      "SHIFT1": "Normal to Normal",
      "SHIFT1N": 1.0,
      "CRIT1": "",
      "CRIT1FL": "",
      "CRIT1FN": NaN
    },
    {
      "STUDYID": "CDISCPILOT01",
      "SUBJID": "1034",
      "USUBJID": "01-701-1034",
      "TRTP": "Xanomeline High Dose",
      "TRTPN": 81.0,
      "TRTA": "Xanomeline High Dose",
      "TRTAN": 81.0,
      "TRTSDT": 19905.0,
      "TRTEDT": 20087.0,
      "AGE": 77.0,
      "AGEGR1": "65-80",
      "AGEGR1N": 2.0,
      "RACE": "WHITE",
      "RACEN": 1.0,
      "SEX": "F",
      "COMP24FL": "Y",
      "DSRAEFL": "",
      "SAFFL": "Y",
      "AVISIT": "Week 4",
      "AVISITN": 4.0,
      "ADY": NaN,
      "ADT": NaN,
      "VISIT": "",
      "VISITNUM": NaN,
      "PARAMTYP": "DERIVED",
      "PARAM": "Total Bili 1.5 x ULN and Transaminase 1.5 x ULN",
      "PARAMCD": "HYLAW",
      "PARAMN": 6.0,
      "PARCAT1": "HYLAW",
      "AVAL": 5.397605346934028e-79,
      "BASE": 5.397605346934028e-79,
      "A1LO": NaN,
      "A1HI": NaN,
      "R2A1LO": NaN,
      "R2A1HI": NaN,
      "BR2A1LO": NaN,
      "BR2A1HI": NaN,
      "ABLFL": "",
      "SHIFT1": "Normal to Normal",
      "SHIFT1N": 1.0,
      "CRIT1": "",
      "CRIT1FL": "",
      "CRIT1FN": NaN
    },
    {
      "STUDYID": "CDISCPILOT01",
      "SUBJID": "1034",
      "USUBJID": "01-701-1034",
      "TRTP": "Xanomeline High Dose",
      "TRTPN": 81.0,
      "TRTA": "Xanomeline High Dose",
      "TRTAN": 81.0,
      "TRTSDT": 19905.0,
      "TRTEDT": 20087.0,
      "AGE": 77.0,
      "AGEGR1": "65-80",
      "AGEGR1N": 2.0,
      "RACE": "WHITE",
      "RACEN": 1.0,
      "SEX": "F",
      "COMP24FL": "Y",
      "DSRAEFL": "",
      "SAFFL": "Y",
      "AVISIT": "Week 6",
      "AVISITN": 6.0,
      "ADY": 42.0,
      "ADT": 19946.0,
      "VISIT": "WEEK 6",
      "VISITNUM": 7.0,
      "PARAMTYP": "",
      "PARAM": "Alanine Aminotransferase (U/L)",
      "PARAMCD": "ALT",
      "PARAMN": 1.0,
      "PARCAT1": "CHEM",
      "AVAL": 15.0,
      "BASE": 15.0,
      "A1LO": 6.0,
      "A1HI": 32.0,
      "R2A1LO": 2.5,
      "R2A1HI": 0.46875,
      "BR2A1LO": 2.5,
      "BR2A1HI": 0.46875,
      "ABLFL": "",
      "SHIFT1": "",
      "SHIFT1N": NaN,
      "CRIT1": "R2A1HI > 1.5",
      "CRIT1FL": "N",
      "CRIT1FN": 5.397605346934028e-79
    },
    {
      "STUDYID": "CDISCPILOT01",
      "SUBJID": "1034",
      "USUBJID": "01-701-1034",
      "TRTP": "Xanomeline High Dose",
      "TRTPN": 81.0,
      "TRTA": "Xanomeline High Dose",
      "TRTAN": 81.0,
      "TRTSDT": 19905.0,
      "TRTEDT": 20087.0,
      "AGE": 77.0,
      "AGEGR1": "65-80",
      "AGEGR1N": 2.0,
      "RACE": "WHITE",
      "RACEN": 1.0,
      "SEX": "F",
      "COMP24FL": "Y",
      "DSRAEFL": "",
      "SAFFL": "Y",
      "AVISIT": "Week 6",
      "AVISITN": 6.0,
      "ADY": 42.0,
      "ADT": 19946.0,
      "VISIT": "WEEK 6",
      "VISITNUM": 7.0,
      "PARAMTYP": "",
      "PARAM": "Aspartate Aminotransferase (U/L)",
      "PARAMCD": "AST",
      "PARAMN": 2.0,
      "PARCAT1": "CHEM",
      "AVAL": 19.0,
      "BASE": 23.0,
      "A1LO": 9.0,
      "A1HI": 34.0,
      "R2A1LO": 2.111111111111111,
      "R2A1HI": 0.5588235294117647,
      "BR2A1LO": 2.5555555555555554,
      "BR2A1HI": 0.6764705882352942,
      "ABLFL": "",
      "SHIFT1": "",
      "SHIFT1N": NaN,
      "CRIT1": "R2A1HI > 1.5",
      "CRIT1FL": "N",
      "CRIT1FN": 5.397605346934028e-79
    },
    {
      "STUDYID": "CDISCPILOT01",
      "SUBJID": "1034",
      "USUBJID": "01-701-1034",
      "TRTP": "Xanomeline High Dose",
      "TRTPN": 81.0,
      "TRTA": "Xanomeline High Dose",
      "TRTAN": 81.0,
      "TRTSDT": 19905.0,
      "TRTEDT": 20087.0,
      "AGE": 77.0,
      "AGEGR1": "65-80",
      "AGEGR1N": 2.0,
      "RACE": "WHITE",
      "RACEN": 1.0,
      "SEX": "F",
      "COMP24FL": "Y",
      "DSRAEFL": "",
      "SAFFL": "Y",
      "AVISIT": "Week 6",
      "AVISITN": 6.0,
      "ADY": 42.0,
      "ADT": 19946.0,
      "VISIT": "WEEK 6",
      "VISITNUM": 7.0,
      "PARAMTYP": "",
      "PARAM": "Bilirubin (umol/L)",
      "PARAMCD": "BILI",
      "PARAMN": 3.0,
      "PARCAT1": "CHEM",
      "AVAL": 6.84,
      "BASE": 10.26,
      "A1LO": 3.0,
      "A1HI": 21.0,
      "R2A1LO": 2.28,
      "R2A1HI": 0.32571428571428573,
      "BR2A1LO": 3.42,
      "BR2A1HI": 0.48857142857142855,
      "ABLFL": "",
      "SHIFT1": "",
      "SHIFT1N": NaN,
      "CRIT1": "R2A1HI > 1.5",
      "CRIT1FL": "N",
      "CRIT1FN": 5.397605346934028e-79
    },
    {
      "STUDYID": "CDISCPILOT01",
      "SUBJID": "1034",
      "USUBJID": "01-701-1034",
      "TRTP": "Xanomeline High Dose",
      "TRTPN": 81.0,
      "TRTA": "Xanomeline High Dose",
      "TRTAN": 81.0,
      "TRTSDT": 19905.0,
      "TRTEDT": 20087.0,
      "AGE": 77.0,
      "AGEGR1": "65-80",
      "AGEGR1N": 2.0,
      "RACE": "WHITE",
      "RACEN": 1.0,
      "SEX": "F",
      "COMP24FL": "Y",
      "DSRAEFL": "",
      "SAFFL": "Y",
      "AVISIT": "Week 6",
      "AVISITN": 6.0,
      "ADY": NaN,
      "ADT": NaN,
      "VISIT": "",
      "VISITNUM": NaN,
      "PARAMTYP": "DERIVED",
      "PARAM": "Bilirubin 1.5 x ULN",
      "PARAMCD": "BILIHY",
      "PARAMN": 4.0,
      "PARCAT1": "HYLAW",
      "AVAL": 5.397605346934028e-79,
      "BASE": 5.397605346934028e-79,
      "A1LO": NaN,
      "A1HI": NaN,
      "R2A1LO": NaN,
      "R2A1HI": NaN,
      "BR2A1LO": NaN,
      "BR2A1HI": NaN,
      "ABLFL": "",
      "SHIFT1": "Normal to Normal",
      "SHIFT1N": 1.0,
      "CRIT1": "",
      "CRIT1FL": "",
      "CRIT1FN": NaN
    },
    {
      "STUDYID": "CDISCPILOT01",
      "SUBJID": "1034",
      "USUBJID": "01-701-1034",
      "TRTP": "Xanomeline High Dose",
      "TRTPN": 81.0,
      "TRTA": "Xanomeline High Dose",
      "TRTAN": 81.0,
      "TRTSDT": 19905.0,
      "TRTEDT": 20087.0,
      "AGE": 77.0,
      "AGEGR1": "65-80",
      "AGEGR1N": 2.0,
      "RACE": "WHITE",
      "RACEN": 1.0,
      "SEX": "F",
      "COMP24FL": "Y",
      "DSRAEFL": "",
      "SAFFL": "Y",
      "AVISIT": "Week 6",
      "AVISITN": 6.0,
      "ADY": NaN,
      "ADT": NaN,
      "VISIT": "",
      "VISITNUM": NaN,
      "PARAMTYP": "DERIVED",
      "PARAM": "Transaminase 1.5 x ULN",
      "PARAMCD": "TRANSHY",
      "PARAMN": 5.0,
      "PARCAT1": "HYLAW",
      "AVAL": 5.397605346934028e-79,
      "BASE": 5.397605346934028e-79,
      "A1LO": NaN,
      "A1HI": NaN,
      "R2A1LO": NaN,
      "R2A1HI": NaN,
      "BR2A1LO": NaN,
      "BR2A1HI": NaN,
      "ABLFL": "",
      "SHIFT1": "Normal to Normal",
      "SHIFT1N": 1.0,
      "CRIT1": "",
      "CRIT1FL": "",
      "CRIT1FN": NaN
    },
    {
      "STUDYID": "CDISCPILOT01",
      "SUBJID": "1034",
      "USUBJID": "01-701-1034",
      "TRTP": "Xanomeline High Dose",
      "TRTPN": 81.0,
      "TRTA": "Xanomeline High Dose",
      "TRTAN": 81.0,
      "TRTSDT": 19905.0,
      "TRTEDT": 20087.0,
      "AGE": 77.0,
      "AGEGR1": "65-80",
      "AGEGR1N": 2.0,
      "RACE": "WHITE",
      "RACEN": 1.0,
      "SEX": "F",
      "COMP24FL": "Y",
      "DSRAEFL": "",
      "SAFFL": "Y",
      "AVISIT": "Week 6",
      "AVISITN": 6.0,
      "ADY": NaN,
      "ADT": NaN,
      "VISIT": "",
      "VISITNUM": NaN,
      "PARAMTYP": "DERIVED",
      "PARAM": "Total Bili 1.5 x ULN and Transaminase 1.5 x ULN",
      "PARAMCD": "HYLAW",
      "PARAMN": 6.0,
      "PARCAT1": "HYLAW",
      "AVAL": 5.397605346934028e-79,
      "BASE": 5.397605346934028e-79,
      "A1LO": NaN,
      "A1HI": NaN,
      "R2A1LO": NaN,
      "R2A1HI": NaN,
      "BR2A1LO": NaN,
      "BR2A1HI": NaN,
      "ABLFL": "",
      "SHIFT1": "Normal to Normal",
      "SHIFT1N": 1.0,
      "CRIT1": "",
      "CRIT1FL": "",
      "CRIT1FN": NaN
    },
    {
      "STUDYID": "CDISCPILOT01",
      "SUBJID": "1034",
      "USUBJID": "01-701-1034",
      "TRTP": "Xanomeline High Dose",
      "TRTPN": 81.0,
      "TRTA": "Xanomeline High Dose",
      "TRTAN": 81.0,
      "TRTSDT": 19905.0,
      "TRTEDT": 20087.0,
      "AGE": 77.0,
      "AGEGR1": "65-80",
      "AGEGR1N": 2.0,
      "RACE": "WHITE",
      "RACEN": 1.0,
      "SEX": "F",
      "COMP24FL": "Y",
      "DSRAEFL": "",
      "SAFFL": "Y",
      "AVISIT": "Week 8",
      "AVISITN": 8.0,
      "ADY": 57.0,
      "ADT": 19961.0,
      "VISIT": "WEEK 8",
      "VISITNUM": 8.0,
      "PARAMTYP": "",
      "PARAM": "Alanine Aminotransferase (U/L)",
      "PARAMCD": "ALT",
      "PARAMN": 1.0,
      "PARCAT1": "CHEM",
      "AVAL": 24.0,
      "BASE": 15.0,
      "A1LO": 6.0,
      "A1HI": 32.0,
      "R2A1LO": 4.0,
      "R2A1HI": 0.75,
      "BR2A1LO": 2.5,
      "BR2A1HI": 0.46875,
      "ABLFL": "",
      "SHIFT1": "",
      "SHIFT1N": NaN,
      "CRIT1": "R2A1HI > 1.5",
      "CRIT1FL": "N",
      "CRIT1FN": 5.397605346934028e-79
    },
    {
      "STUDYID": "CDISCPILOT01",
      "SUBJID": "1034",
      "USUBJID": "01-701-1034",
      "TRTP": "Xanomeline High Dose",
      "TRTPN": 81.0,
      "TRTA": "Xanomeline High Dose",
      "TRTAN": 81.0,
      "TRTSDT": 19905.0,
      "TRTEDT": 20087.0,
      "AGE": 77.0,
      "AGEGR1": "65-80",
      "AGEGR1N": 2.0,
      "RACE": "WHITE",
      "RACEN": 1.0,
      "SEX": "F",
      "COMP24FL": "Y",
      "DSRAEFL": "",
      "SAFFL": "Y",
      "AVISIT": "Week 8",
      "AVISITN": 8.0,
      "ADY": 57.0,
      "ADT": 19961.0,
      "VISIT": "WEEK 8",
      "VISITNUM": 8.0,
      "PARAMTYP": "",
      "PARAM": "Aspartate Aminotransferase (U/L)",
      "PARAMCD": "AST",
      "PARAMN": 2.0,
      "PARCAT1": "CHEM",
      "AVAL": 26.0,
      "BASE": 23.0,
      "A1LO": 9.0,
      "A1HI": 34.0,
      "R2A1LO": 2.888888888888889,
      "R2A1HI": 0.7647058823529411,
      "BR2A1LO": 2.5555555555555554,
      "BR2A1HI": 0.6764705882352942,
      "ABLFL": "",
      "SHIFT1": "",
      "SHIFT1N": NaN,
      "CRIT1": "R2A1HI > 1.5",
      "CRIT1FL": "N",
      "CRIT1FN": 5.397605346934028e-79
    },
    {
      "STUDYID": "CDISCPILOT01",
      "SUBJID": "1034",
      "USUBJID": "01-701-1034",
      "TRTP": "Xanomeline High Dose",
      "TRTPN": 81.0,
      "TRTA": "Xanomeline High Dose",
      "TRTAN": 81.0,
      "TRTSDT": 19905.0,
      "TRTEDT": 20087.0,
      "AGE": 77.0,
      "AGEGR1": "65-80",
      "AGEGR1N": 2.0,
      "RACE": "WHITE",
      "RACEN": 1.0,
      "SEX": "F",
      "COMP24FL": "Y",
      "DSRAEFL": "",
      "SAFFL": "Y",
      "AVISIT": "Week 8",
      "AVISITN": 8.0,
      "ADY": 57.0,
      "ADT": 19961.0,
      "VISIT": "WEEK 8",
      "VISITNUM": 8.0,
      "PARAMTYP": "",
      "PARAM": "Bilirubin (umol/L)",
      "PARAMCD": "BILI",
      "PARAMN": 3.0,
      "PARCAT1": "CHEM",
      "AVAL": 8.549999999999999,
      "BASE": 10.26,
      "A1LO": 3.0,
      "A1HI": 21.0,
      "R2A1LO": 2.8499999999999996,
      "R2A1HI": 0.4071428571428571,
      "BR2A1LO": 3.42,
      "BR2A1HI": 0.48857142857142855,
      "ABLFL": "",
      "SHIFT1": "",
      "SHIFT1N": NaN,
      "CRIT1": "R2A1HI > 1.5",
      "CRIT1FL": "N",
      "CRIT1FN": 5.397605346934028e-79
    },
    {
      "STUDYID": "CDISCPILOT01",
      "SUBJID": "1034",
      "USUBJID": "01-701-1034",
      "TRTP": "Xanomeline High Dose",
      "TRTPN": 81.0,
      "TRTA": "Xanomeline High Dose",
      "TRTAN": 81.0,
      "TRTSDT": 19905.0,
      "TRTEDT": 20087.0,
      "AGE": 77.0,
      "AGEGR1": "65-80",
      "AGEGR1N": 2.0,
      "RACE": "WHITE",
      "RACEN": 1.0,
      "SEX": "F",
      "COMP24FL": "Y",
      "DSRAEFL": "",
      "SAFFL": "Y",
      "AVISIT": "Week 8",
      "AVISITN": 8.0,
      "ADY": NaN,
      "ADT": NaN,
      "VISIT": "",
      "VISITNUM": NaN,
      "PARAMTYP": "DERIVED",
      "PARAM": "Bilirubin 1.5 x ULN",
      "PARAMCD": "BILIHY",
      "PARAMN": 4.0,
      "PARCAT1": "HYLAW",
      "AVAL": 5.397605346934028e-79,
      "BASE": 5.397605346934028e-79,
      "A1LO": NaN,
      "A1HI": NaN,
      "R2A1LO": NaN,
      "R2A1HI": NaN,
      "BR2A1LO": NaN,
      "BR2A1HI": NaN,
      "ABLFL": "",
      "SHIFT1": "Normal to Normal",
      "SHIFT1N": 1.0,
      "CRIT1": "",
      "CRIT1FL": "",
      "CRIT1FN": NaN
    },
    {
      "STUDYID": "CDISCPILOT01",
      "SUBJID": "1034",
      "USUBJID": "01-701-1034",
      "TRTP": "Xanomeline High Dose",
      "TRTPN": 81.0,
      "TRTA": "Xanomeline High Dose",
      "TRTAN": 81.0,
      "TRTSDT": 19905.0,
      "TRTEDT": 20087.0,
      "AGE": 77.0,
      "AGEGR1": "65-80",
      "AGEGR1N": 2.0,
      "RACE": "WHITE",
      "RACEN": 1.0,
      "SEX": "F",
      "COMP24FL": "Y",
      "DSRAEFL": "",
      "SAFFL": "Y",
      "AVISIT": "Week 8",
      "AVISITN": 8.0,
      "ADY": NaN,
      "ADT": NaN,
      "VISIT": "",
      "VISITNUM": NaN,
      "PARAMTYP": "DERIVED",
      "PARAM": "Transaminase 1.5 x ULN",
      "PARAMCD": "TRANSHY",
      "PARAMN": 5.0,
      "PARCAT1": "HYLAW",
      "AVAL": 5.397605346934028e-79,
      "BASE": 5.397605346934028e-79,
      "A1LO": NaN,
      "A1HI": NaN,
      "R2A1LO": NaN,
      "R2A1HI": NaN,
      "BR2A1LO": NaN,
      "BR2A1HI": NaN,
      "ABLFL": "",
      "SHIFT1": "Normal to Normal",
      "SHIFT1N": 1.0,
      "CRIT1": "",
      "CRIT1FL": "",
      "CRIT1FN": NaN
    },
    {
      "STUDYID": "CDISCPILOT01",
      "SUBJID": "1034",
      "USUBJID": "01-701-1034",
      "TRTP": "Xanomeline High Dose",
      "TRTPN": 81.0,
      "TRTA": "Xanomeline High Dose",
      "TRTAN": 81.0,
      "TRTSDT": 19905.0,
      "TRTEDT": 20087.0,
      "AGE": 77.0,
      "AGEGR1": "65-80",
      "AGEGR1N": 2.0,
      "RACE": "WHITE",
      "RACEN": 1.0,
      "SEX": "F",
      "COMP24FL": "Y",
      "DSRAEFL": "",
      "SAFFL": "Y",
      "AVISIT": "Week 8",
      "AVISITN": 8.0,
      "ADY": NaN,
      "ADT": NaN,
      "VISIT": "",
      "VISITNUM": NaN,
      "PARAMTYP": "DERIVED",
      "PARAM": "Total Bili 1.5 x ULN and Transaminase 1.5 x ULN",
      "PARAMCD": "HYLAW",
      "PARAMN": 6.0,
      "PARCAT1": "HYLAW",
      "AVAL": 5.397605346934028e-79,
      "BASE": 5.397605346934028e-79,
      "A1LO": NaN,
      "A1HI": NaN,
      "R2A1LO": NaN,
      "R2A1HI": NaN,
      "BR2A1LO": NaN,
      "BR2A1HI": NaN,
      "ABLFL": "",
      "SHIFT1": "Normal to Normal",
      "SHIFT1N": 1.0,
      "CRIT1": "",
      "CRIT1FL": "",
      "CRIT1FN": NaN
    },
    {
      "STUDYID": "CDISCPILOT01",
      "SUBJID": "1034",
      "USUBJID": "01-701-1034",
      "TRTP": "Xanomeline High Dose",
      "TRTPN": 81.0,
      "TRTA": "Xanomeline High Dose",
      "TRTAN": 81.0,
      "TRTSDT": 19905.0,
      "TRTEDT": 20087.0,
      "AGE": 77.0,
      "AGEGR1": "65-80",
      "AGEGR1N": 2.0,
      "RACE": "WHITE",
      "RACEN": 1.0,
      "SEX": "F",
      "COMP24FL": "Y",
      "DSRAEFL": "",
      "SAFFL": "Y",
      "AVISIT": "Week 12",
      "AVISITN": 12.0,
      "ADY": 87.0,
      "ADT": 19991.0,
      "VISIT": "WEEK 12",
      "VISITNUM": 9.0,
      "PARAMTYP": "",
      "PARAM": "Alanine Aminotransferase (U/L)",
      "PARAMCD": "ALT",
      "PARAMN": 1.0,
      "PARCAT1": "CHEM",
      "AVAL": 20.0,
      "BASE": 15.0,
      "A1LO": 6.0,
      "A1HI": 32.0,
      "R2A1LO": 3.3333333333333335,
      "R2A1HI": 0.625,
      "BR2A1LO": 2.5,
      "BR2A1HI": 0.46875,
      "ABLFL": "",
      "SHIFT1": "",
      "SHIFT1N": NaN,
      "CRIT1": "R2A1HI > 1.5",
      "CRIT1FL": "N",
      "CRIT1FN": 5.397605346934028e-79
    },
    {
      "STUDYID": "CDISCPILOT01",
      "SUBJID": "1034",
      "USUBJID": "01-701-1034",
      "TRTP": "Xanomeline High Dose",
      "TRTPN": 81.0,
      "TRTA": "Xanomeline High Dose",
      "TRTAN": 81.0,
      "TRTSDT": 19905.0,
      "TRTEDT": 20087.0,
      "AGE": 77.0,
      "AGEGR1": "65-80",
      "AGEGR1N": 2.0,
      "RACE": "WHITE",
      "RACEN": 1.0,
      "SEX": "F",
      "COMP24FL": "Y",
      "DSRAEFL": "",
      "SAFFL": "Y",
      "AVISIT": "Week 12",
      "AVISITN": 12.0,
      "ADY": 87.0,
      "ADT": 19991.0,
      "VISIT": "WEEK 12",
      "VISITNUM": 9.0,
      "PARAMTYP": "",
      "PARAM": "Aspartate Aminotransferase (U/L)",
      "PARAMCD": "AST",
      "PARAMN": 2.0,
      "PARCAT1": "CHEM",
      "AVAL": 23.0,
      "BASE": 23.0,
      "A1LO": 9.0,
      "A1HI": 34.0,
      "R2A1LO": 2.5555555555555554,
      "R2A1HI": 0.6764705882352942,
      "BR2A1LO": 2.5555555555555554,
      "BR2A1HI": 0.6764705882352942,
      "ABLFL": "",
      "SHIFT1": "",
      "SHIFT1N": NaN,
      "CRIT1": "R2A1HI > 1.5",
      "CRIT1FL": "N",
      "CRIT1FN": 5.397605346934028e-79
    },
    {
      "STUDYID": "CDISCPILOT01",
      "SUBJID": "1034",
      "USUBJID": "01-701-1034",
      "TRTP": "Xanomeline High Dose",
      "TRTPN": 81.0,
      "TRTA": "Xanomeline High Dose",
      "TRTAN": 81.0,
      "TRTSDT": 19905.0,
      "TRTEDT": 20087.0,
      "AGE": 77.0,
      "AGEGR1": "65-80",
      "AGEGR1N": 2.0,
      "RACE": "WHITE",
      "RACEN": 1.0,
      "SEX": "F",
      "COMP24FL": "Y",
      "DSRAEFL": "",
      "SAFFL": "Y",
      "AVISIT": "Week 12",
      "AVISITN": 12.0,
      "ADY": 87.0,
      "ADT": 19991.0,
      "VISIT": "WEEK 12",
      "VISITNUM": 9.0,
      "PARAMTYP": "",
      "PARAM": "Bilirubin (umol/L)",
      "PARAMCD": "BILI",
      "PARAMN": 3.0,
      "PARCAT1": "CHEM",
      "AVAL": 8.549999999999999,
      "BASE": 10.26,
      "A1LO": 3.0,
      "A1HI": 21.0,
      "R2A1LO": 2.8499999999999996,
      "R2A1HI": 0.4071428571428571,
      "BR2A1LO": 3.42,
      "BR2A1HI": 0.48857142857142855,
      "ABLFL": "",
      "SHIFT1": "",
      "SHIFT1N": NaN,
      "CRIT1": "R2A1HI > 1.5",
      "CRIT1FL": "N",
      "CRIT1FN": 5.397605346934028e-79
    },
    {
      "STUDYID": "CDISCPILOT01",
      "SUBJID": "1034",
      "USUBJID": "01-701-1034",
      "TRTP": "Xanomeline High Dose",
      "TRTPN": 81.0,
      "TRTA": "Xanomeline High Dose",
      "TRTAN": 81.0,
      "TRTSDT": 19905.0,
      "TRTEDT": 20087.0,
      "AGE": 77.0,
      "AGEGR1": "65-80",
      "AGEGR1N": 2.0,
      "RACE": "WHITE",
      "RACEN": 1.0,
      "SEX": "F",
      "COMP24FL": "Y",
      "DSRAEFL": "",
      "SAFFL": "Y",
      "AVISIT": "Week 12",
      "AVISITN": 12.0,
      "ADY": NaN,
      "ADT": NaN,
      "VISIT": "",
      "VISITNUM": NaN,
      "PARAMTYP": "DERIVED",
      "PARAM": "Bilirubin 1.5 x ULN",
      "PARAMCD": "BILIHY",
      "PARAMN": 4.0,
      "PARCAT1": "HYLAW",
      "AVAL": 5.397605346934028e-79,
      "BASE": 5.397605346934028e-79,
      "A1LO": NaN,
      "A1HI": NaN,
      "R2A1LO": NaN,
      "R2A1HI": NaN,
      "BR2A1LO": NaN,
      "BR2A1HI": NaN,
      "ABLFL": "",
      "SHIFT1": "Normal to Normal",
      "SHIFT1N": 1.0,
      "CRIT1": "",
      "CRIT1FL": "",
      "CRIT1FN": NaN
    },
    {
      "STUDYID": "CDISCPILOT01",
      "SUBJID": "1034",
      "USUBJID": "01-701-1034",
      "TRTP": "Xanomeline High Dose",
      "TRTPN": 81.0,
      "TRTA": "Xanomeline High Dose",
      "TRTAN": 81.0,
      "TRTSDT": 19905.0,
      "TRTEDT": 20087.0,
      "AGE": 77.0,
      "AGEGR1": "65-80",
      "AGEGR1N": 2.0,
      "RACE": "WHITE",
      "RACEN": 1.0,
      "SEX": "F",
      "COMP24FL": "Y",
      "DSRAEFL": "",
      "SAFFL": "Y",
      "AVISIT": "Week 12",
      "AVISITN": 12.0,
      "ADY": NaN,
      "ADT": NaN,
      "VISIT": "",
      "VISITNUM": NaN,
      "PARAMTYP": "DERIVED",
      "PARAM": "Transaminase 1.5 x ULN",
      "PARAMCD": "TRANSHY",
      "PARAMN": 5.0,
      "PARCAT1": "HYLAW",
      "AVAL": 5.397605346934028e-79,
      "BASE": 5.397605346934028e-79,
      "A1LO": NaN,
      "A1HI": NaN,
      "R2A1LO": NaN,
      "R2A1HI": NaN,
      "BR2A1LO": NaN,
      "BR2A1HI": NaN,
      "ABLFL": "",
      "SHIFT1": "Normal to Normal",
      "SHIFT1N": 1.0,
      "CRIT1": "",
      "CRIT1FL": "",
      "CRIT1FN": NaN
    },
    {
      "STUDYID": "CDISCPILOT01",
      "SUBJID": "1034",
      "USUBJID": "01-701-1034",
      "TRTP": "Xanomeline High Dose",
      "TRTPN": 81.0,
      "TRTA": "Xanomeline High Dose",
      "TRTAN": 81.0,
      "TRTSDT": 19905.0,
      "TRTEDT": 20087.0,
      "AGE": 77.0,
      "AGEGR1": "65-80",
      "AGEGR1N": 2.0,
      "RACE": "WHITE",
      "RACEN": 1.0,
      "SEX": "F",
      "COMP24FL": "Y",
      "DSRAEFL": "",
      "SAFFL": "Y",
      "AVISIT": "Week 12",
      "AVISITN": 12.0,
      "ADY": NaN,
      "ADT": NaN,
      "VISIT": "",
      "VISITNUM": NaN,
      "PARAMTYP": "DERIVED",
      "PARAM": "Total Bili 1.5 x ULN and Transaminase 1.5 x ULN",
      "PARAMCD": "HYLAW",
      "PARAMN": 6.0,
      "PARCAT1": "HYLAW",
      "AVAL": 5.397605346934028e-79,
      "BASE": 5.397605346934028e-79,
      "A1LO": NaN,
      "A1HI": NaN,
      "R2A1LO": NaN,
      "R2A1HI": NaN,
      "BR2A1LO": NaN,
      "BR2A1HI": NaN,
      "ABLFL": "",
      "SHIFT1": "Normal to Normal",
      "SHIFT1N": 1.0,
      "CRIT1": "",
      "CRIT1FL": "",
      "CRIT1FN": NaN
    },
    {
      "STUDYID": "CDISCPILOT01",
      "SUBJID": "1034",
      "USUBJID": "01-701-1034",
      "TRTP": "Xanomeline High Dose",
      "TRTPN": 81.0,
      "TRTA": "Xanomeline High Dose",
      "TRTAN": 81.0,
      "TRTSDT": 19905.0,
