{
  "name": "ADSL",
  "total_rows": 254,
  "unique_subjects": 254,
  "columns": [
    {
      "name": "STUDYID",
      "type": "string"
    },
    {
      "name": "USUBJID",
      "type": "string"
    },
    {
      "name": "SUBJID",
      "type": "string"
    },
    {
      "name": "SITEID",
      "type": "string"
    },
    {
      "name": "SITEGR1",
      "type": "string"
    },
    {
      "name": "ARM",
      "type": "string"
    },
    {
      "name": "TRT01P",
      "type": "string"
    },
    {
      "name": "TRT01PN",
      "type": "number"
    },
    {
      "name": "TRT01A",
      "type": "string"
    },
    {
      "name": "TRT01AN",
      "type": "number"
    },
    {
      "name": "TRTSDT",
      "type": "number"
    },
    {
      "name": "TRTEDT",
      "type": "number"
    },
    {
      "name": "TRTDURD",
      "type": "number"
    },
    {
      "name": "AVGDD",
      "type": "number"
    },
    {
      "name": "CUMDOSE",
      "type": "number"
    },
    {
      "name": "AGE",
      "type": "number"
    },
    {
      "name": "AGEGR1",
      "type": "string"
    },
    {
      "name": "AGEGR1N",
      "type": "number"
    },
    {
      "name": "AGEU",
      "type": "string"
    },
    {
      "name": "RACE",
      "type": "string"
    },
    {
      "name": "RACEN",
      "type": "number"
    },
    {
      "name": "SEX",
      "type": "string"
    },
    {
      "name": "ETHNIC",
      "type": "string"
    },
    {
      "name": "SAFFL",
      "type": "string"
    },
    {
      "name": "ITTFL",
      "type": "string"
    },
    {
      "name": "EFFFL",
      "type": "string"
    },
    {
      "name": "COMP8FL",
      "type": "string"
    },
    {
      "name": "COMP16FL",
      "type": "string"
    },
    {
      "name": "COMP24FL",
      "type": "string"
    },
    {
      "name": "DISCONFL",
      "type": "string"
    },
    {
      "name": "DSRAEFL",
      "type": "string"
    },
    {
      "name": "DTHFL",
      "type": "string"
    },
    {
      "name": "BMIBL",
      "type": "number"
    },
    {
      "name": "BMIBLGR1",
      "type": "string"
    },
    {
      "name": "HEIGHTBL",
      "type": "number"
    },
    {
      "name": "WEIGHTBL",
      "type": "number"
    },
    {
      "name": "EDUCLVL",
      "type": "number"
    },
    {
      "name": "DISONSDT",
      "type": "number"
    },
    {
      "name": "DURDIS",
      "type": "number"
    },
    {
      "name": "DURDSGR1",
      "type": "string"
    },
    {
      "name": "VISIT1DT",
      "type": "number"
    },
    {
      "name": "RFSTDTC",
      "type": "string"
    },
    {
      "name": "RFENDTC",
      "type": "string"
    },
    {
      "name": "VISNUMEN",
      "type": "number"
    },
    {
      "name": "RFENDT",
      "type": "number"
    },
    {
      "name": "DCDECOD",
      "type": "string"
    },
    {
      "name": "EOSSTT",
      "type": "string"
    },
    {
      "name": "DCSREAS",
      "type": "string"
    },
    {
      "name": "MMSETOT",
      "type": "number"
    }
  ],
  "rows": [
    {
      "STUDYID": "CDISCPILOT01",
      "USUBJID": "01-701-1015",
      "SUBJID": "1015",
      "SITEID": "701",
      "SITEGR1": "701",
      "ARM": "Placebo",
      "TRT01P": "Placebo",
      "TRT01PN": 5.397605346934028e-79,
      "TRT01A": "Placebo",
      "TRT01AN": 5.397605346934028e-79,
      "TRTSDT": 19725.0,
      "TRTEDT": 19906.0,
      "TRTDURD": 182.0,
      "AVGDD": 5.397605346934028e-79,
      "CUMDOSE": 5.397605346934028e-79,
      "AGE": 63.0,
      "AGEGR1": "<65",
      "AGEGR1N": 1.0,
      "AGEU": "YEARS",
      "RACE": "WHITE",
      "RACEN": 1.0,
      "SEX": "F",
      "ETHNIC": "HISPANIC OR LATINO",
      "SAFFL": "Y",
      "ITTFL": "Y",
      "EFFFL": "Y",
      "COMP8FL": "Y",
      "COMP16FL": "Y",
      "COMP24FL": "Y",
      "DISCONFL": "",
      "DSRAEFL": "",
      "DTHFL": "",
      "BMIBL": 25.1,
      "BMIBLGR1": "25-<30",
      "HEIGHTBL": 147.3,
      "WEIGHTBL": 54.4,
      "EDUCLVL": 16.0,
      "DISONSDT": 18382.0,
      "DURDIS": 43.9,
      "DURDSGR1": ">=12",
      "VISIT1DT": 19718.0,
      "RFSTDTC": "2014-01-02",
      "RFENDTC": "2014-07-02",
      "VISNUMEN": 12.0,
      "RFENDT": 19906.0,
      "DCDECOD": "COMPLETED",
      "EOSSTT": "COMPLETED",
      "DCSREAS": "",
      "MMSETOT": 23.0
    },
    {
      "STUDYID": "CDISCPILOT01",
      "USUBJID": "01-701-1023",
      "SUBJID": "1023",
      "SITEID": "701",
      "SITEGR1": "701",
      "ARM": "Placebo",
      "TRT01P": "Placebo",
      "TRT01PN": 5.397605346934028e-79,
      "TRT01A": "Placebo",
      "TRT01AN": 5.397605346934028e-79,
      "TRTSDT": 19210.0,
      "TRTEDT": 19237.0,
      "TRTDURD": 28.0,
      "AVGDD": 5.397605346934028e-79,
      "CUMDOSE": 5.397605346934028e-79,
      "AGE": 64.0,
      "AGEGR1": "<65",
      "AGEGR1N": 1.0,
      "AGEU": "YEARS",
      "RACE": "WHITE",
      "RACEN": 1.0,
      "SEX": "M",
      "ETHNIC": "HISPANIC OR LATINO",
      "SAFFL": "Y",
      "ITTFL": "Y",
      "EFFFL": "Y",
      "COMP8FL": "N",
      "COMP16FL": "N",
      "COMP24FL": "N",
      "DISCONFL": "Y",
      "DSRAEFL": "Y",
      "DTHFL": "",
      "BMIBL": 30.4,
      "BMIBLGR1": ">=30",
      "HEIGHTBL": 162.6,
      "WEIGHTBL": 80.3,
      "EDUCLVL": 14.0,
      "DISONSDT": 16871.0,
      "DURDIS": 76.4,
      "DURDSGR1": ">=12",
      "VISIT1DT": 19196.0,
      "RFSTDTC": "2012-08-05",
      "RFENDTC": "2012-09-02",
      "VISNUMEN": 5.0,
      "RFENDT": 19238.0,
      "DCDECOD": "ADVERSE EVENT",
      "EOSSTT": "DISCONTINUED",
      "DCSREAS": "Adverse Event",
      "MMSETOT": 23.0
    },
    {
      "STUDYID": "CDISCPILOT01",
      "USUBJID": "01-701-1028",
      "SUBJID": "1028",
      "SITEID": "701",
      "SITEGR1": "701",
      "ARM": "Xanomeline High Dose",
      "TRT01P": "Xanomeline High Dose",
      "TRT01PN": 81.0,
      "TRT01A": "Xanomeline High Dose",
      "TRT01AN": 81.0,
      "TRTSDT": 19558.0,
      "TRTEDT": 19737.0,
      "TRTDURD": 180.0,
      "AVGDD": 77.7,
      "CUMDOSE": 13986.0,
      "AGE": 71.0,
      "AGEGR1": "65-80",
      "AGEGR1N": 2.0,
      "AGEU": "YEARS",
      "RACE": "WHITE",
      "RACEN": 1.0,
      "SEX": "M",
      "ETHNIC": "NOT HISPANIC OR LATINO",
      "SAFFL": "Y",
      "ITTFL": "Y",
      "EFFFL": "Y",
      "COMP8FL": "Y",
      "COMP16FL": "Y",
      "COMP24FL": "Y",
      "DISCONFL": "",
      "DSRAEFL": "",
      "DTHFL": "",
      "BMIBL": 31.4,
      "BMIBLGR1": ">=30",
      "HEIGHTBL": 177.8,
      "WEIGHTBL": 99.3,
      "EDUCLVL": 16.0,
      "DISONSDT": 18247.0,
      "DURDIS": 42.8,
      "DURDSGR1": ">=12",
      "VISIT1DT": 19550.0,
      "RFSTDTC": "2013-07-19",
      "RFENDTC": "2014-01-14",
      "VISNUMEN": 12.0,
      "RFENDT": 19737.0,
      "DCDECOD": "COMPLETED",
      "EOSSTT": "COMPLETED",
      "DCSREAS": "",
      "MMSETOT": 23.0
    },
    {
      "STUDYID": "CDISCPILOT01",
      "USUBJID": "01-701-1033",
      "SUBJID": "1033",
      "SITEID": "701",
      "SITEGR1": "701",
      "ARM": "Xanomeline Low Dose",
      "TRT01P": "Xanomeline Low Dose",
      "TRT01PN": 54.0,
      "TRT01A": "Xanomeline Low Dose",
      "TRT01AN": 54.0,
      "TRTSDT": 19800.0,
      "TRTEDT": 19813.0,
      "TRTDURD": 14.0,
      "AVGDD": 54.0,
      "CUMDOSE": 756.0,
      "AGE": 74.0,
      "AGEGR1": "65-80",
      "AGEGR1N": 2.0,
      "AGEU": "YEARS",
      "RACE": "WHITE",
      "RACEN": 1.0,
      "SEX": "M",
      "ETHNIC": "NOT HISPANIC OR LATINO",
      "SAFFL": "Y",
      "ITTFL": "Y",
      "EFFFL": "Y",
      "COMP8FL": "N",
      "COMP16FL": "N",
      "COMP24FL": "N",
      "DISCONFL": "Y",
      "DSRAEFL": "",
      "DTHFL": "",
      "BMIBL": 28.8,
      "BMIBLGR1": "25-<30",
      "HEIGHTBL": 175.3,
      "WEIGHTBL": 88.5,
      "EDUCLVL": 12.0,
      "DISONSDT": 18111.0,
      "DURDIS": 55.3,
      "DURDSGR1": ">=12",
      "VISIT1DT": 19792.0,
      "RFSTDTC": "2014-03-18",
      "RFENDTC": "2014-04-14",
      "VISNUMEN": 5.0,
      "RFENDT": 19827.0,
      "DCDECOD": "STUDY TERMINATED BY SPONSOR",
      "EOSSTT": "DISCONTINUED",
      "DCSREAS": "Sponsor Decision",
      "MMSETOT": 23.0
    },
    {
      "STUDYID": "CDISCPILOT01",
      "USUBJID": "01-701-1034",
      "SUBJID": "1034",
      "SITEID": "701",
      "SITEGR1": "701",
      "ARM": "Xanomeline High Dose",
      "TRT01P": "Xanomeline High Dose",
      "TRT01PN": 81.0,
      "TRT01A": "Xanomeline High Dose",
      "TRT01AN": 81.0,
      "TRTSDT": 19905.0,
      "TRTEDT": 20087.0,
      "TRTDURD": 183.0,
      "AVGDD": 76.9,
      "CUMDOSE": 14067.0,
      "AGE": 77.0,
      "AGEGR1": "65-80",
      "AGEGR1N": 2.0,
      "AGEU": "YEARS",
      "RACE": "WHITE",
      "RACEN": 1.0,
      "SEX": "F",
      "ETHNIC": "NOT HISPANIC OR LATINO",
      "SAFFL": "Y",
      "ITTFL": "Y",
      "EFFFL": "Y",
      "COMP8FL": "Y",
      "COMP16FL": "Y",
      "COMP24FL": "Y",
      "DISCONFL": "",
      "DSRAEFL": "",
      "DTHFL": "",
      "BMIBL": 26.1,
      "BMIBLGR1": "25-<30",
      "HEIGHTBL": 154.9,
      "WEIGHTBL": 62.6,
      "EDUCLVL": 9.0,
      "DISONSDT": 18899.0,
      "DURDIS": 32.9,
      "DURDSGR1": ">=12",
      "VISIT1DT": 19898.0,
      "RFSTDTC": "2014-07-01",
      "RFENDTC": "2014-12-30",
      "VISNUMEN": 12.0,
      "RFENDT": 20087.0,
      "DCDECOD": "COMPLETED",
      "EOSSTT": "COMPLETED",
      "DCSREAS": "",
      "MMSETOT": 21.0
    },
    {
      "STUDYID": "CDISCPILOT01",
      "USUBJID": "01-701-1047",
      "SUBJID": "1047",
      "SITEID": "701",
      "SITEGR1": "701",
      "ARM": "Placebo",
      "TRT01P": "Placebo",
      "TRT01PN": 5.397605346934028e-79,
      "TRT01A": "Placebo",
      "TRT01AN": 5.397605346934028e-79,
      "TRTSDT": 19401.0,
      "TRTEDT": 19426.0,
      "TRTDURD": 26.0,
      "AVGDD": 5.397605346934028e-79,
      "CUMDOSE": 5.397605346934028e-79,
      "AGE": 85.0,
      "AGEGR1": ">80",
      "AGEGR1N": 3.0,
      "AGEU": "YEARS",
      "RACE": "WHITE",
      "RACEN": 1.0,
      "SEX": "F",
      "ETHNIC": "NOT HISPANIC OR LATINO",
      "SAFFL": "Y",
      "ITTFL": "Y",
      "EFFFL": "Y",
      "COMP8FL": "N",
      "COMP16FL": "N",
      "COMP24FL": "N",
      "DISCONFL": "Y",
      "DSRAEFL": "Y",
      "DTHFL": "",
      "BMIBL": 30.4,
      "BMIBLGR1": ">=30",
      "HEIGHTBL": 148.6,
      "WEIGHTBL": 67.1,
      "EDUCLVL": 8.0,
      "DISONSDT": 18104.0,
      "DURDIS": 42.0,
      "DURDSGR1": ">=12",
      "VISIT1DT": 19380.0,
      "RFSTDTC": "2013-02-12",
      "RFENDTC": "2013-03-29",
      "VISNUMEN": 6.0,
      "RFENDT": 19446.0,
      "DCDECOD": "ADVERSE EVENT",
      "EOSSTT": "DISCONTINUED",
      "DCSREAS": "Adverse Event",
      "MMSETOT": 23.0
    },
    {
      "STUDYID": "CDISCPILOT01",
      "USUBJID": "01-701-1097",
      "SUBJID": "1097",
      "SITEID": "701",
      "SITEGR1": "701",
      "ARM": "Xanomeline Low Dose",
      "TRT01P": "Xanomeline Low Dose",
      "TRT01PN": 54.0,
      "TRT01A": "Xanomeline Low Dose",
      "TRT01AN": 54.0,
      "TRTSDT": 19724.0,
      "TRTEDT": 19913.0,
      "TRTDURD": 190.0,
      "AVGDD": 54.0,
      "CUMDOSE": 10260.0,
      "AGE": 68.0,
      "AGEGR1": "65-80",
      "AGEGR1N": 2.0,
      "AGEU": "YEARS",
      "RACE": "WHITE",
      "RACEN": 1.0,
      "SEX": "M",
      "ETHNIC": "NOT HISPANIC OR LATINO",
      "SAFFL": "Y",
      "ITTFL": "Y",
      "EFFFL": "Y",
      "COMP8FL": "Y",
      "COMP16FL": "Y",
      "COMP24FL": "Y",
      "DISCONFL": "",
      "DSRAEFL": "",
      "DTHFL": "",
      "BMIBL": 27.3,
      "BMIBLGR1": "25-<30",
      "HEIGHTBL": 168.9,
      "WEIGHTBL": 78.0,
      "EDUCLVL": 18.0,
      "DISONSDT": 16701.0,
      "DURDIS": 99.1,
      "DURDSGR1": ">=12",
      "VISIT1DT": 19715.0,
      "RFSTDTC": "2014-01-01",
      "RFENDTC": "2014-07-09",
      "VISNUMEN": 12.0,
      "RFENDT": 19913.0,
      "DCDECOD": "COMPLETED",
      "EOSSTT": "COMPLETED",
      "DCSREAS": "",
      "MMSETOT": 10.0
    },
    {
      "STUDYID": "CDISCPILOT01",
      "USUBJID": "01-701-1111",
      "SUBJID": "1111",
      "SITEID": "701",
      "SITEGR1": "701",
      "ARM": "Xanomeline Low Dose",
      "TRT01P": "Xanomeline Low Dose",
      "TRT01PN": 54.0,
      "TRT01A": "Xanomeline Low Dose",
      "TRT01AN": 54.0,
      "TRTSDT": 19243.0,
      "TRTEDT": 19252.0,
      "TRTDURD": 10.0,
      "AVGDD": 54.0,
      "CUMDOSE": 540.0,
      "AGE": 81.0,
      "AGEGR1": ">80",
      "AGEGR1N": 3.0,
      "AGEU": "YEARS",
      "RACE": "WHITE",
      "RACEN": 1.0,
      "SEX": "F",
      "ETHNIC": "NOT HISPANIC OR LATINO",
      "SAFFL": "Y",
      "ITTFL": "Y",
      "EFFFL": "Y",
      "COMP8FL": "N",
      "COMP16FL": "N",
      "COMP24FL": "N",
      "DISCONFL": "Y",
      "DSRAEFL": "Y",
      "DTHFL": "",
      "BMIBL": 23.9,
      "BMIBLGR1": "<25",
      "HEIGHTBL": 158.2,
      "WEIGHTBL": 59.9,
      "EDUCLVL": 22.0,
      "DISONSDT": 17991.0,
      "DURDIS": 40.7,
      "DURDSGR1": ">=12",
      "VISIT1DT": 19230.0,
      "RFSTDTC": "2012-09-07",
      "RFENDTC": "2012-09-17",
      "VISNUMEN": 4.0,
      "RFENDT": 19253.0,
      "DCDECOD": "ADVERSE EVENT",
      "EOSSTT": "DISCONTINUED",
      "DCSREAS": "Adverse Event",
      "MMSETOT": 23.0
    },
    {
      "STUDYID": "CDISCPILOT01",
      "USUBJID": "01-701-1115",
      "SUBJID": "1115",
      "SITEID": "701",
      "SITEGR1": "701",
      "ARM": "Xanomeline Low Dose",
      "TRT01P": "Xanomeline Low Dose",
      "TRT01PN": 54.0,
      "TRT01A": "Xanomeline Low Dose",
      "TRT01AN": 54.0,
      "TRTSDT": 19327.0,
      "TRTEDT": 19381.0,
      "TRTDURD": 55.0,
      "AVGDD": 54.0,
      "CUMDOSE": 2970.0,
      "AGE": 84.0,
      "AGEGR1": ">80",
      "AGEGR1N": 3.0,
      "AGEU": "YEARS",
      "RACE": "WHITE",
      "RACEN": 1.0,
      "SEX": "M",
      "ETHNIC": "NOT HISPANIC OR LATINO",
      "SAFFL": "Y",
      "ITTFL": "Y",
      "EFFFL": "Y",
      "COMP8FL": "Y",
      "COMP16FL": "N",
      "COMP24FL": "N",
      "DISCONFL": "Y",
      "DSRAEFL": "Y",
      "DTHFL": "",
      "BMIBL": 23.9,
      "BMIBLGR1": "<25",
      "HEIGHTBL": 181.6,
      "WEIGHTBL": 78.9,
      "EDUCLVL": 12.0,
      "DISONSDT": 16219.0,
      "DURDIS": 101.9,
      "DURDSGR1": ">=12",
      "VISIT1DT": 19320.0,
      "RFSTDTC": "2012-11-30",
      "RFENDTC": "2013-01-23",
      "VISNUMEN": 8.0,
      "RFENDT": 19381.0,
      "DCDECOD": "ADVERSE EVENT",
      "EOSSTT": "DISCONTINUED",
      "DCSREAS": "Adverse Event",
      "MMSETOT": 20.0
    },
    {
      "STUDYID": "CDISCPILOT01",
      "USUBJID": "01-701-1118",
      "SUBJID": "1118",
      "SITEID": "701",
      "SITEGR1": "701",
      "ARM": "Placebo",
      "TRT01P": "Placebo",
      "TRT01PN": 5.397605346934028e-79,
      "TRT01A": "Placebo",
      "TRT01AN": 5.397605346934028e-79,
      "TRTSDT": 19794.0,
      "TRTEDT": 19975.0,
      "TRTDURD": 182.0,
      "AVGDD": 5.397605346934028e-79,
      "CUMDOSE": 5.397605346934028e-79,
      "AGE": 52.0,
      "AGEGR1": "<65",
      "AGEGR1N": 1.0,
      "AGEU": "YEARS",
      "RACE": "WHITE",
      "RACEN": 1.0,
      "SEX": "M",
      "ETHNIC": "NOT HISPANIC OR LATINO",
      "SAFFL": "Y",
      "ITTFL": "Y",
      "EFFFL": "Y",
      "COMP8FL": "Y",
      "COMP16FL": "Y",
      "COMP24FL": "Y",
      "DISCONFL": "",
      "DSRAEFL": "",
      "DTHFL": "",
      "BMIBL": 21.9,
      "BMIBLGR1": "<25",
      "HEIGHTBL": 180.3,
      "WEIGHTBL": 71.2,
      "EDUCLVL": 14.0,
      "DISONSDT": 18437.0,
      "DURDIS": 44.2,
      "DURDSGR1": ">=12",
      "VISIT1DT": 19781.0,
      "RFSTDTC": "2014-03-12",
      "RFENDTC": "2014-09-09",
      "VISNUMEN": 12.0,
      "RFENDT": 19975.0,
      "DCDECOD": "COMPLETED",
      "EOSSTT": "COMPLETED",
      "DCSREAS": "",
      "MMSETOT": 20.0
    },
    {
      "STUDYID": "CDISCPILOT01",
      "USUBJID": "01-701-1130",
      "SUBJID": "1130",
      "SITEID": "701",
      "SITEGR1": "701",
      "ARM": "Placebo",
      "TRT01P": "Placebo",
      "TRT01PN": 5.397605346934028e-79,
      "TRT01A": "Placebo",
      "TRT01AN": 5.397605346934028e-79,
      "TRTSDT": 19769.0,
      "TRTEDT": 19951.0,
      "TRTDURD": 183.0,
      "AVGDD": 5.397605346934028e-79,
      "CUMDOSE": 5.397605346934028e-79,
      "AGE": 84.0,
      "AGEGR1": ">80",
      "AGEGR1N": 3.0,
      "AGEU": "YEARS",
      "RACE": "WHITE",
      "RACEN": 1.0,
      "SEX": "M",
      "ETHNIC": "NOT HISPANIC OR LATINO",
      "SAFFL": "Y",
      "ITTFL": "Y",
      "EFFFL": "Y",
      "COMP8FL": "Y",
      "COMP16FL": "Y",
      "COMP24FL": "Y",
      "DISCONFL": "",
      "DSRAEFL": "",
      "DTHFL": "",
      "BMIBL": 27.6,
      "BMIBLGR1": "25-<30",
      "HEIGHTBL": 169.7,
      "WEIGHTBL": 79.4,
      "EDUCLVL": 12.0,
      "DISONSDT": 18404.0,
      "DURDIS": 44.7,
      "DURDSGR1": ">=12",
      "VISIT1DT": 19763.0,
      "RFSTDTC": "2014-02-15",
      "RFENDTC": "2014-08-16",
      "VISNUMEN": 12.0,
      "RFENDT": 19951.0,
      "DCDECOD": "COMPLETED",
      "EOSSTT": "COMPLETED",
      "DCSREAS": "",
      "MMSETOT": 19.0
    },
    {
      "STUDYID": "CDISCPILOT01",
      "USUBJID": "01-701-1133",
      "SUBJID": "1133",
      "SITEID": "701",
      "SITEGR1": "701",
      "ARM": "Xanomeline High Dose",
      "TRT01P": "Xanomeline High Dose",
      "TRT01PN": 81.0,
      "TRT01A": "Xanomeline High Dose",
      "TRT01AN": 81.0,
      "TRTSDT": 19294.0,
      "TRTEDT": 19476.0,
      "TRTDURD": 183.0,
      "AVGDD": 77.2,
      "CUMDOSE": 14121.0,
      "AGE": 81.0,
      "AGEGR1": ">80",
      "AGEGR1N": 3.0,
      "AGEU": "YEARS",
      "RACE": "WHITE",
      "RACEN": 1.0,
      "SEX": "F",
      "ETHNIC": "NOT HISPANIC OR LATINO",
      "SAFFL": "Y",
      "ITTFL": "Y",
      "EFFFL": "Y",
      "COMP8FL": "Y",
      "COMP16FL": "Y",
      "COMP24FL": "Y",
      "DISCONFL": "",
      "DSRAEFL": "",
      "DTHFL": "",
      "BMIBL": 28.1,
      "BMIBLGR1": "25-<30",
      "HEIGHTBL": 162.6,
      "WEIGHTBL": 74.4,
      "EDUCLVL": 10.0,
      "DISONSDT": 18332.0,
      "DURDIS": 31.5,
      "DURDSGR1": ">=12",
      "VISIT1DT": 19289.0,
      "RFSTDTC": "2012-10-28",
      "RFENDTC": "2013-04-29",
      "VISNUMEN": 12.0,
      "RFENDT": 19477.0,
      "DCDECOD": "COMPLETED",
      "EOSSTT": "COMPLETED",
      "DCSREAS": "",
      "MMSETOT": 21.0
    },
    {
      "STUDYID": "CDISCPILOT01",
      "USUBJID": "01-701-1146",
      "SUBJID": "1146",
      "SITEID": "701",
      "SITEGR1": "701",
      "ARM": "Xanomeline High Dose",
      "TRT01P": "Xanomeline High Dose",
      "TRT01PN": 81.0,
      "TRT01A": "Xanomeline High Dose",
      "TRT01AN": 81.0,
      "TRTSDT": 19498.0,
      "TRTEDT": 19535.0,
      "TRTDURD": 38.0,
      "AVGDD": 70.3,
      "CUMDOSE": 2673.0,
      "AGE": 75.0,
      "AGEGR1": "65-80",
      "AGEGR1N": 2.0,
      "AGEU": "YEARS",
      "RACE": "WHITE",
      "RACEN": 1.0,
      "SEX": "F",
      "ETHNIC": "NOT HISPANIC OR LATINO",
      "SAFFL": "Y",
      "ITTFL": "Y",
      "EFFFL": "Y",
      "COMP8FL": "N",
      "COMP16FL": "N",
      "COMP24FL": "N",
      "DISCONFL": "Y",
      "DSRAEFL": "Y",
      "DTHFL": "",
      "BMIBL": 24.9,
      "BMIBLGR1": "<25",
      "HEIGHTBL": 147.3,
      "WEIGHTBL": 54.0,
      "EDUCLVL": 16.0,
      "DISONSDT": 18218.0,
      "DURDIS": 41.7,
      "DURDSGR1": ">=12",
      "VISIT1DT": 19485.0,
      "RFSTDTC": "2013-05-20",
      "RFENDTC": "2013-06-30",
      "VISNUMEN": 7.0,
      "RFENDT": 19539.0,
      "DCDECOD": "ADVERSE EVENT",
      "EOSSTT": "DISCONTINUED",
      "DCSREAS": "Adverse Event",
      "MMSETOT": 22.0
    },
    {
      "STUDYID": "CDISCPILOT01",
      "USUBJID": "01-701-1148",
      "SUBJID": "1148",
      "SITEID": "701",
      "SITEGR1": "701",
      "ARM": "Xanomeline High Dose",
      "TRT01P": "Xanomeline High Dose",
      "TRT01PN": 81.0,
      "TRT01A": "Xanomeline High Dose",
      "TRT01AN": 81.0,
      "TRTSDT": 19593.0,
      "TRTEDT": 19774.0,
      "TRTDURD": 182.0,
      "AVGDD": 77.1,
      "CUMDOSE": 14040.0,
      "AGE": 57.0,
      "AGEGR1": "<65",
      "AGEGR1N": 1.0,
      "AGEU": "YEARS",
      "RACE": "WHITE",
      "RACEN": 1.0,
      "SEX": "M",
      "ETHNIC": "NOT HISPANIC OR LATINO",
      "SAFFL": "Y",
      "ITTFL": "Y",
      "EFFFL": "Y",
      "COMP8FL": "Y",
      "COMP16FL": "Y",
      "COMP24FL": "Y",
      "DISCONFL": "",
      "DSRAEFL": "",
      "DTHFL": "",
      "BMIBL": 28.3,
      "BMIBLGR1": "25-<30",
      "HEIGHTBL": 175.3,
      "WEIGHTBL": 87.1,
      "EDUCLVL": 15.0,
      "DISONSDT": 18608.0,
      "DURDIS": 32.1,
      "DURDSGR1": ">=12",
      "VISIT1DT": 19584.0,
      "RFSTDTC": "2013-08-23",
      "RFENDTC": "2014-02-20",
      "VISNUMEN": 12.0,
      "RFENDT": 19774.0,
      "DCDECOD": "COMPLETED",
      "EOSSTT": "COMPLETED",
      "DCSREAS": "",
      "MMSETOT": 21.0
    },
    {
      "STUDYID": "CDISCPILOT01",
      "USUBJID": "01-701-1153",
      "SUBJID": "1153",
      "SITEID": "701",
      "SITEGR1": "701",
      "ARM": "Placebo",
      "TRT01P": "Placebo",
      "TRT01PN": 5.397605346934028e-79,
      "TRT01A": "Placebo",
      "TRT01AN": 5.397605346934028e-79,
      "TRTSDT": 19624.0,
      "TRTEDT": 19798.0,
      "TRTDURD": 175.0,
      "AVGDD": 5.397605346934028e-79,
      "CUMDOSE": 5.397605346934028e-79,
      "AGE": 79.0,
      "AGEGR1": "65-80",
      "AGEGR1N": 2.0,
      "AGEU": "YEARS",
      "RACE": "WHITE",
      "RACEN": 1.0,
      "SEX": "F",
      "ETHNIC": "NOT HISPANIC OR LATINO",
      "SAFFL": "Y",
      "ITTFL": "Y",
      "EFFFL": "Y",
      "COMP8FL": "Y",
      "COMP16FL": "Y",
      "COMP24FL": "Y",
      "DISCONFL": "",
      "DSRAEFL": "",
      "DTHFL": "",
      "BMIBL": 23.8,
      "BMIBLGR1": "<25",
      "HEIGHTBL": 156.2,
      "WEIGHTBL": 58.1,
      "EDUCLVL": 6.0,
      "DISONSDT": 16569.0,
      "DURDIS": 99.8,
      "DURDSGR1": ">=12",
      "VISIT1DT": 19607.0,
      "RFSTDTC": "2013-09-23",
      "RFENDTC": "2014-04-01",
      "VISNUMEN": 12.0,
      "RFENDT": 19814.0,
      "DCDECOD": "COMPLETED",
      "EOSSTT": "COMPLETED",
      "DCSREAS": "",
      "MMSETOT": 10.0
    },
    {
      "STUDYID": "CDISCPILOT01",
      "USUBJID": "01-701-1180",
      "SUBJID": "1180",
      "SITEID": "701",
      "SITEGR1": "701",
      "ARM": "Xanomeline High Dose",
      "TRT01P": "Xanomeline High Dose",
      "TRT01PN": 81.0,
      "TRT01A": "Xanomeline High Dose",
      "TRT01AN": 81.0,
      "TRTSDT": 19401.0,
      "TRTEDT": 19435.0,
      "TRTDURD": 35.0,
      "AVGDD": 70.2,
      "CUMDOSE": 2457.0,
      "AGE": 56.0,
      "AGEGR1": "<65",
      "AGEGR1N": 1.0,
      "AGEU": "YEARS",
      "RACE": "WHITE",
      "RACEN": 1.0,
      "SEX": "M",
      "ETHNIC": "NOT HISPANIC OR LATINO",
      "SAFFL": "Y",
      "ITTFL": "Y",
      "EFFFL": "Y",
      "COMP8FL": "N",
      "COMP16FL": "N",
      "COMP24FL": "N",
      "DISCONFL": "Y",
      "DSRAEFL": "Y",
      "DTHFL": "",
      "BMIBL": 27.6,
      "BMIBLGR1": "25-<30",
      "HEIGHTBL": 180.3,
      "WEIGHTBL": 89.8,
      "EDUCLVL": 16.0,
      "DISONSDT": 17796.0,
      "DURDIS": 52.3,
      "DURDSGR1": ">=12",
      "VISIT1DT": 19386.0,
      "RFSTDTC": "2013-02-12",
      "RFENDTC": "2013-03-23",
      "VISNUMEN": 7.0,
      "RFENDT": 19440.0,
      "DCDECOD": "ADVERSE EVENT",
      "EOSSTT": "DISCONTINUED",
      "DCSREAS": "Adverse Event",
      "MMSETOT": 19.0
    },
    {
      "STUDYID": "CDISCPILOT01",
      "USUBJID": "01-701-1181",
      "SUBJID": "1181",
      "SITEID": "701",
      "SITEGR1": "701",
      "ARM": "Xanomeline High Dose",
      "TRT01P": "Xanomeline High Dose",
      "TRT01PN": 81.0,
      "TRT01A": "Xanomeline High Dose",
      "TRT01AN": 81.0,
      "TRTSDT": 19697.0,
      "TRTEDT": 19701.0,
      "TRTDURD": 5.0,
      "AVGDD": 54.0,
      "CUMDOSE": 270.0,
      "AGE": 79.0,
      "AGEGR1": "65-80",
      "AGEGR1N": 2.0,
      "AGEU": "YEARS",
      "RACE": "WHITE",
      "RACEN": 1.0,
      "SEX": "F",
      "ETHNIC": "NOT HISPANIC OR LATINO",
      "SAFFL": "Y",
      "ITTFL": "Y",
      "EFFFL": "Y",
      "COMP8FL": "N",
      "COMP16FL": "N",
      "COMP24FL": "N",
      "DISCONFL": "Y",
      "DSRAEFL": "Y",
      "DTHFL": "",
      "BMIBL": 27.8,
      "BMIBLGR1": "25-<30",
      "HEIGHTBL": 154.9,
      "WEIGHTBL": 66.7,
      "EDUCLVL": 15.0,
      "DISONSDT": 17770.0,
      "DURDIS": 63.0,
      "DURDSGR1": ">=12",
      "VISIT1DT": 19688.0,
      "RFSTDTC": "2013-12-05",
      "RFENDTC": "2013-12-12",
      "VISNUMEN": 4.0,
      "RFENDT": 19704.0,
      "DCDECOD": "ADVERSE EVENT",
      "EOSSTT": "DISCONTINUED",
      "DCSREAS": "Adverse Event",
      "MMSETOT": 10.0
    },
    {
      "STUDYID": "CDISCPILOT01",
      "USUBJID": "01-701-1188",
      "SUBJID": "1188",
      "SITEID": "701",
      "SITEGR1": "701",
      "ARM": "Xanomeline Low Dose",
      "TRT01P": "Xanomeline Low Dose",
      "TRT01PN": 54.0,
      "TRT01A": "Xanomeline Low Dose",
      "TRT01AN": 54.0,
      "TRTSDT": 19404.0,
      "TRTEDT": 19441.0,
      "TRTDURD": 38.0,
      "AVGDD": 54.0,
      "CUMDOSE": 2052.0,
      "AGE": 71.0,
      "AGEGR1": "65-80",
      "AGEGR1N": 2.0,
      "AGEU": "YEARS",
      "RACE": "WHITE",
      "RACEN": 1.0,
      "SEX": "M",
      "ETHNIC": "NOT HISPANIC OR LATINO",
      "SAFFL": "Y",
      "ITTFL": "Y",
      "EFFFL": "Y",
      "COMP8FL": "N",
      "COMP16FL": "N",
      "COMP24FL": "N",
      "DISCONFL": "Y",
      "DSRAEFL": "Y",
      "DTHFL": "",
      "BMIBL": 32.0,
      "BMIBLGR1": ">=30",
      "HEIGHTBL": 177.8,
      "WEIGHTBL": 101.2,
      "EDUCLVL": 16.0,
      "DISONSDT": 16693.0,
      "DURDIS": 88.7,
      "DURDSGR1": ">=12",
      "VISIT1DT": 19392.0,
      "RFSTDTC": "2013-02-15",
      "RFENDTC": "2013-03-25",
      "VISNUMEN": 7.0,
      "RFENDT": 19442.0,
      "DCDECOD": "ADVERSE EVENT",
      "EOSSTT": "DISCONTINUED",
      "DCSREAS": "Adverse Event",
      "MMSETOT": 23.0
    },
    {
      "STUDYID": "CDISCPILOT01",
      "USUBJID": "01-701-1192",
      "SUBJID": "1192",
      "SITEID": "701",
      "SITEGR1": "701",
      "ARM": "Xanomeline Low Dose",
      "TRT01P": "Xanomeline Low Dose",
      "TRT01PN": 54.0,
      "TRT01A": "Xanomeline Low Dose",
      "TRT01AN": 54.0,
      "TRTSDT": 19196.0,
      "TRTEDT": 19378.0,
      "TRTDURD": 183.0,
      "AVGDD": 54.0,
      "CUMDOSE": 9882.0,
      "AGE": 80.0,
      "AGEGR1": "65-80",
      "AGEGR1N": 2.0,
      "AGEU": "YEARS",
      "RACE": "WHITE",
      "RACEN": 1.0,
      "SEX": "F",
      "ETHNIC": "NOT HISPANIC OR LATINO",
      "SAFFL": "Y",
      "ITTFL": "Y",
      "EFFFL": "Y",
      "COMP8FL": "Y",
      "COMP16FL": "Y",
      "COMP24FL": "Y",
      "DISCONFL": "",
      "DSRAEFL": "",
      "DTHFL": "",
      "BMIBL": 27.8,
      "BMIBLGR1": "25-<30",
      "HEIGHTBL": 151.1,
      "WEIGHTBL": 63.5,
      "EDUCLVL": 12.0,
      "DISONSDT": 17971.0,
      "DURDIS": 39.8,
      "DURDSGR1": ">=12",
      "VISIT1DT": 19182.0,
      "RFSTDTC": "2012-07-22",
      "RFENDTC": "2013-01-20",
      "VISNUMEN": 12.0,
      "RFENDT": 19378.0,
      "DCDECOD": "COMPLETED",
      "EOSSTT": "COMPLETED",
      "DCSREAS": "",
      "MMSETOT": 23.0
    },
    {
      "STUDYID": "CDISCPILOT01",
      "USUBJID": "01-701-1203",
      "SUBJID": "1203",
      "SITEID": "701",
      "SITEGR1": "701",
      "ARM": "Placebo",
      "TRT01P": "Placebo",
      "TRT01PN": 5.397605346934028e-79,
      "TRT01A": "Placebo",
      "TRT01AN": 5.397605346934028e-79,
      "TRTSDT": 19391.0,
      "TRTEDT": 19573.0,
      "TRTDURD": 183.0,
      "AVGDD": 5.397605346934028e-79,
      "CUMDOSE": 5.397605346934028e-79,
      "AGE": 81.0,
      "AGEGR1": ">80",
      "AGEGR1N": 3.0,
      "AGEU": "YEARS",
      "RACE": "BLACK OR AFRICAN AMERICAN",
      "RACEN": 2.0,
      "SEX": "F",
      "ETHNIC": "NOT HISPANIC OR LATINO",
      "SAFFL": "Y",
      "ITTFL": "Y",
      "EFFFL": "Y",
      "COMP8FL": "Y",
      "COMP16FL": "Y",
      "COMP24FL": "Y",
      "DISCONFL": "",
      "DSRAEFL": "",
      "DTHFL": "",
      "BMIBL": 25.9,
      "BMIBLGR1": "25-<30",
      "HEIGHTBL": 160.0,
      "WEIGHTBL": 66.2,
      "EDUCLVL": 13.0,
      "DISONSDT": 18736.0,
      "DURDIS": 21.3,
      "DURDSGR1": ">=12",
      "VISIT1DT": 19383.0,
      "RFSTDTC": "2013-02-02",
      "RFENDTC": "2013-08-03",
      "VISNUMEN": 12.0,
      "RFENDT": 19573.0,
      "DCDECOD": "COMPLETED",
      "EOSSTT": "COMPLETED",
      "DCSREAS": "",
      "MMSETOT": 21.0
    },
    {
      "STUDYID": "CDISCPILOT01",
      "USUBJID": "01-701-1211",
      "SUBJID": "1211",
      "SITEID": "701",
      "SITEGR1": "701",
      "ARM": "Xanomeline Low Dose",
      "TRT01P": "Xanomeline Low Dose",
      "TRT01PN": 54.0,
      "TRT01A": "Xanomeline Low Dose",
      "TRT01AN": 54.0,
      "TRTSDT": 19312.0,
      "TRTEDT": 19370.0,
      "TRTDURD": 59.0,
      "AVGDD": 54.0,
      "CUMDOSE": 3186.0,
      "AGE": 76.0,
      "AGEGR1": "65-80",
      "AGEGR1N": 2.0,
      "AGEU": "YEARS",
      "RACE": "WHITE",
      "RACEN": 1.0,
      "SEX": "F",
      "ETHNIC": "NOT HISPANIC OR LATINO",
      "SAFFL": "Y",
      "ITTFL": "Y",
      "EFFFL": "Y",
      "COMP8FL": "Y",
      "COMP16FL": "N",
      "COMP24FL": "N",
      "DISCONFL": "Y",
      "DSRAEFL": "",
      "DTHFL": "Y",
      "BMIBL": 17.7,
      "BMIBLGR1": "<25",
      "HEIGHTBL": 160.0,
      "WEIGHTBL": 45.4,
      "EDUCLVL": 12.0,
      "DISONSDT": 18340.0,
      "DURDIS": 31.4,
      "DURDSGR1": ">=12",
      "VISIT1DT": 19296.0,
      "RFSTDTC": "2012-11-15",
      "RFENDTC": "2013-01-14",
      "VISNUMEN": 9.0,
      "RFENDT": 19372.0,
      "DCDECOD": "DEATH",
      "EOSSTT": "DISCONTINUED",
      "DCSREAS": "Death",
      "MMSETOT": 12.0
    },
    {
      "STUDYID": "CDISCPILOT01",
      "USUBJID": "01-701-1234",
      "SUBJID": "1234",
      "SITEID": "701",
      "SITEGR1": "701",
      "ARM": "Placebo",
      "TRT01P": "Placebo",
      "TRT01PN": 5.397605346934028e-79,
      "TRT01A": "Placebo",
      "TRT01AN": 5.397605346934028e-79,
      "TRTSDT": 19447.0,
      "TRTEDT": 19623.0,
      "TRTDURD": 177.0,
      "AVGDD": 5.397605346934028e-79,
      "CUMDOSE": 5.397605346934028e-79,
      "AGE": 69.0,
      "AGEGR1": "65-80",
      "AGEGR1N": 2.0,
      "AGEU": "YEARS",
      "RACE": "WHITE",
      "RACEN": 1.0,
      "SEX": "M",
      "ETHNIC": "NOT HISPANIC OR LATINO",
      "SAFFL": "Y",
      "ITTFL": "Y",
      "EFFFL": "Y",
      "COMP8FL": "Y",
      "COMP16FL": "Y",
      "COMP24FL": "Y",
      "DISCONFL": "",
      "DSRAEFL": "",
      "DTHFL": "",
      "BMIBL": 23.4,
      "BMIBLGR1": "<25",
      "HEIGHTBL": 181.6,
      "WEIGHTBL": 77.1,
      "EDUCLVL": 18.0,
      "DISONSDT": 17024.0,
      "DURDIS": 79.3,
      "DURDSGR1": ">=12",
      "VISIT1DT": 19437.0,
      "RFSTDTC": "2013-03-30",
      "RFENDTC": "2013-09-22",
      "VISNUMEN": 12.0,
      "RFENDT": 19623.0,
      "DCDECOD": "COMPLETED",
      "EOSSTT": "COMPLETED",
      "DCSREAS": "",
      "MMSETOT": 20.0
    },
    {
      "STUDYID": "CDISCPILOT01",
      "USUBJID": "01-701-1239",
      "SUBJID": "1239",
      "SITEID": "701",
      "SITEGR1": "701",
      "ARM": "Xanomeline High Dose",
      "TRT01P": "Xanomeline High Dose",
      "TRT01PN": 81.0,
      "TRT01A": "Xanomeline High Dose",
      "TRT01AN": 81.0,
      "TRTSDT": 19734.0,
      "TRTEDT": 19914.0,
      "TRTDURD": 181.0,
      "AVGDD": 76.8,
      "CUMDOSE": 13905.0,
      "AGE": 56.0,
      "AGEGR1": "<65",
      "AGEGR1N": 1.0,
      "AGEU": "YEARS",
      "RACE": "WHITE",
      "RACEN": 1.0,
      "SEX": "M",
      "ETHNIC": "HISPANIC OR LATINO",
      "SAFFL": "Y",
      "ITTFL": "Y",
      "EFFFL": "Y",
      "COMP8FL": "Y",
      "COMP16FL": "Y",
      "COMP24FL": "Y",
      "DISCONFL": "",
      "DSRAEFL": "",
      "DTHFL": "",
      "BMIBL": 33.6,
      "BMIBLGR1": ">=30",
      "HEIGHTBL": 168.9,
      "WEIGHTBL": 95.9,
      "EDUCLVL": 11.0,
      "DISONSDT": 15971.0,
      "DURDIS": 123.2,
      "DURDSGR1": ">=12",
      "VISIT1DT": 19720.0,
      "RFSTDTC": "2014-01-11",
      "RFENDTC": "2014-07-11",
      "VISNUMEN": 12.0,
      "RFENDT": 19915.0,
      "DCDECOD": "COMPLETED",
      "EOSSTT": "COMPLETED",
      "DCSREAS": "",
      "MMSETOT": 23.0
    },
    {
      "STUDYID": "CDISCPILOT01",
      "USUBJID": "01-701-1275",
      "SUBJID": "1275",
      "SITEID": "701",
      "SITEGR1": "701",
      "ARM": "Xanomeline High Dose",
      "TRT01P": "Xanomeline High Dose",
      "TRT01PN": 81.0,
      "TRT01A": "Xanomeline High Dose",
      "TRT01AN": 81.0,
      "TRTSDT": 19761.0,
      "TRTEDT": 19874.0,
      "TRTDURD": 114.0,
      "AVGDD": 77.2,
      "CUMDOSE": 8802.0,
      "AGE": 61.0,
      "AGEGR1": "<65",
      "AGEGR1N": 1.0,
      "AGEU": "YEARS",
      "RACE": "AMERICAN INDIAN OR ALASKA NATIVE",
      "RACEN": 6.0,
      "SEX": "M",
      "ETHNIC": "NOT HISPANIC OR LATINO",
      "SAFFL": "Y",
      "ITTFL": "Y",
      "EFFFL": "Y",
      "COMP8FL": "Y",
      "COMP16FL": "Y",
      "COMP24FL": "N",
      "DISCONFL": "Y",
      "DSRAEFL": "",
      "DTHFL": "",
      "BMIBL": 24.6,
      "BMIBLGR1": "<25",
      "HEIGHTBL": 167.6,
      "WEIGHTBL": 69.0,
      "EDUCLVL": 12.0,
      "DISONSDT": 18887.0,
      "DURDIS": 28.3,
      "DURDSGR1": ">=12",
      "VISIT1DT": 19748.0,
      "RFSTDTC": "2014-02-07",
      "RFENDTC": "2014-06-14",
      "VISNUMEN": 10.0,
      "RFENDT": 19888.0,
      "DCDECOD": "WITHDRAWAL BY SUBJECT",
      "EOSSTT": "DISCONTINUED",
      "DCSREAS": "Withdrew Consent",
      "MMSETOT": 22.0
    },
    {
      "STUDYID": "CDISCPILOT01",
      "USUBJID": "01-701-1287",
      "SUBJID": "1287",
      "SITEID": "701",
      "SITEGR1": "701",
      "ARM": "Xanomeline High Dose",
      "TRT01P": "Xanomeline High Dose",
      "TRT01PN": 81.0,
      "TRT01A": "Xanomeline High Dose",
      "TRT01AN": 81.0,
      "TRTSDT": 19748.0,
      "TRTEDT": 19930.0,
      "TRTDURD": 183.0,
      "AVGDD": 76.3,
      "CUMDOSE": 13959.0,
      "AGE": 56.0,
      "AGEGR1": "<65",
      "AGEGR1N": 1.0,
      "AGEU": "YEARS",
      "RACE": "WHITE",
      "RACEN": 1.0,
      "SEX": "F",
      "ETHNIC": "HISPANIC OR LATINO",
      "SAFFL": "Y",
      "ITTFL": "Y",
      "EFFFL": "Y",
      "COMP8FL": "Y",
      "COMP16FL": "Y",
      "COMP24FL": "Y",
      "DISCONFL": "",
      "DSRAEFL": "",
      "DTHFL": "",
      "BMIBL": 23.5,
      "BMIBLGR1": "<25",
      "HEIGHTBL": 154.9,
      "WEIGHTBL": 56.3,
      "EDUCLVL": 14.0,
      "DISONSDT": 18200.0,
      "DURDIS": 50.6,
      "DURDSGR1": ">=12",
      "VISIT1DT": 19740.0,
      "RFSTDTC": "2014-01-25",
      "RFENDTC": "2014-07-26",
      "VISNUMEN": 12.0,
      "RFENDT": 19930.0,
      "DCDECOD": "COMPLETED",
      "EOSSTT": "COMPLETED",
      "DCSREAS": "",
      "MMSETOT": 22.0
    },
    {
      "STUDYID": "CDISCPILOT01",
      "USUBJID": "01-701-1294",
      "SUBJID": "1294",
      "SITEID": "701",
      "SITEGR1": "701",
      "ARM": "Xanomeline Low Dose",
      "TRT01P": "Xanomeline Low Dose",
      "TRT01PN": 54.0,
      "TRT01A": "Xanomeline Low Dose",
      "TRT01AN": 54.0,
      "TRTSDT": 19441.0,
      "TRTEDT": 19523.0,
      "TRTDURD": 83.0,
      "AVGDD": 54.0,
      "CUMDOSE": 4482.0,
      "AGE": 67.0,
      "AGEGR1": "65-80",
      "AGEGR1N": 2.0,
      "AGEU": "YEARS",
      "RACE": "WHITE",
      "RACEN": 1.0,
      "SEX": "M",
      "ETHNIC": "NOT HISPANIC OR LATINO",
      "SAFFL": "Y",
      "ITTFL": "Y",
      "EFFFL": "Y",
      "COMP8FL": "Y",
      "COMP16FL": "N",
      "COMP24FL": "N",
      "DISCONFL": "Y",
      "DSRAEFL": "Y",
      "DTHFL": "",
      "BMIBL": 27.1,
      "BMIBLGR1": "25-<30",
      "HEIGHTBL": 170.2,
      "WEIGHTBL": 78.5,
      "EDUCLVL": 16.0,
      "DISONSDT": 18879.0,
      "DURDIS": 18.3,
      "DURDSGR1": ">=12",
      "VISIT1DT": 19434.0,
      "RFSTDTC": "2013-03-24",
      "RFENDTC": "2013-06-14",
      "VISNUMEN": 9.0,
      "RFENDT": 19523.0,
      "DCDECOD": "ADVERSE EVENT",
      "EOSSTT": "DISCONTINUED",
      "DCSREAS": "Adverse Event",
      "MMSETOT": 23.0
    },
    {
      "STUDYID": "CDISCPILOT01",
      "USUBJID": "01-701-1302",
      "SUBJID": "1302",
      "SITEID": "701",
      "SITEGR1": "701",
      "ARM": "Xanomeline High Dose",
      "TRT01P": "Xanomeline High Dose",
      "TRT01PN": 81.0,
      "TRT01A": "Xanomeline High Dose",
      "TRT01AN": 81.0,
      "TRTSDT": 19599.0,
      "TRTEDT": 19667.0,
      "TRTDURD": 69.0,
      "AVGDD": 74.0,
      "CUMDOSE": 5103.0,
      "AGE": 61.0,
      "AGEGR1": "<65",
      "AGEGR1N": 1.0,
      "AGEU": "YEARS",
      "RACE": "WHITE",
      "RACEN": 1.0,
      "SEX": "M",
      "ETHNIC": "NOT HISPANIC OR LATINO",
      "SAFFL": "Y",
      "ITTFL": "Y",
      "EFFFL": "Y",
      "COMP8FL": "Y",
      "COMP16FL": "N",
      "COMP24FL": "N",
      "DISCONFL": "Y",
      "DSRAEFL": "Y",
      "DTHFL": "",
      "BMIBL": 26.0,
      "BMIBLGR1": "25-<30",
      "HEIGHTBL": 177.8,
      "WEIGHTBL": 82.1,
      "EDUCLVL": 15.0,
      "DISONSDT": 17206.0,
      "DURDIS": 78.4,
      "DURDSGR1": ">=12",
      "VISIT1DT": 19590.0,
      "RFSTDTC": "2013-08-29",
      "RFENDTC": "2013-11-05",
      "VISNUMEN": 9.0,
      "RFENDT": 19667.0,
      "DCDECOD": "ADVERSE EVENT",
      "EOSSTT": "DISCONTINUED",
      "DCSREAS": "Adverse Event",
      "MMSETOT": 23.0
    },
    {
      "STUDYID": "CDISCPILOT01",
      "USUBJID": "01-701-1317",
      "SUBJID": "1317",
      "SITEID": "701",
      "SITEGR1": "701",
      "ARM": "Xanomeline Low Dose",
      "TRT01P": "Xanomeline Low Dose",
      "TRT01PN": 54.0,
      "TRT01A": "Xanomeline Low Dose",
      "TRT01AN": 54.0,
      "TRTSDT": 19865.0,
      "TRTEDT": 20047.0,
      "TRTDURD": 183.0,
      "AVGDD": 54.0,
      "CUMDOSE": 9882.0,
      "AGE": 68.0,
      "AGEGR1": "65-80",
      "AGEGR1N": 2.0,
      "AGEU": "YEARS",
      "RACE": "WHITE",
      "RACEN": 1.0,
      "SEX": "M",
      "ETHNIC": "NOT HISPANIC OR LATINO",
      "SAFFL": "Y",
      "ITTFL": "Y",
      "EFFFL": "Y",
      "COMP8FL": "Y",
      "COMP16FL": "Y",
      "COMP24FL": "Y",
      "DISCONFL": "",
      "DSRAEFL": "",
      "DTHFL": "",
      "BMIBL": 21.4,
      "BMIBLGR1": "<25",
      "HEIGHTBL": 176.5,
      "WEIGHTBL": 66.7,
      "EDUCLVL": 20.0,
      "DISONSDT": 19617.0,
      "DURDIS": 7.8,
      "DURDSGR1": "<12",
      "VISIT1DT": 19853.0,
      "RFSTDTC": "2014-05-22",
      "RFENDTC": "2014-11-20",
      "VISNUMEN": 12.0,
      "RFENDT": 20047.0,
      "DCDECOD": "COMPLETED",
      "EOSSTT": "COMPLETED",
      "DCSREAS": "",
      "MMSETOT": 20.0
    },
    {
      "STUDYID": "CDISCPILOT01",
      "USUBJID": "01-701-1324",
      "SUBJID": "1324",
      "SITEID": "701",
      "SITEGR1": "701",
      "ARM": "Xanomeline Low Dose",
      "TRT01P": "Xanomeline Low Dose",
      "TRT01PN": 54.0,
      "TRT01A": "Xanomeline Low Dose",
      "TRT01AN": 54.0,
      "TRTSDT": 19268.0,
      "TRTEDT": 19450.0,
      "TRTDURD": 183.0,
      "AVGDD": 54.0,
      "CUMDOSE": 9882.0,
      "AGE": 79.0,
      "AGEGR1": "65-80",
      "AGEGR1N": 2.0,
      "AGEU": "YEARS",
      "RACE": "WHITE",
      "RACEN": 1.0,
      "SEX": "M",
      "ETHNIC": "NOT HISPANIC OR LATINO",
      "SAFFL": "Y",
      "ITTFL": "Y",
      "EFFFL": "Y",
      "COMP8FL": "Y",
      "COMP16FL": "Y",
      "COMP24FL": "Y",
      "DISCONFL": "",
      "DSRAEFL": "",
      "DTHFL": "",
      "BMIBL": 27.8,
      "BMIBLGR1": "25-<30",
      "HEIGHTBL": 166.4,
      "WEIGHTBL": 77.1,
      "EDUCLVL": 18.0,
      "DISONSDT": 18181.0,
      "DURDIS": 35.2,
      "DURDSGR1": ">=12",
      "VISIT1DT": 19252.0,
      "RFSTDTC": "2012-10-02",
      "RFENDTC": "2013-04-02",
      "VISNUMEN": 12.0,
      "RFENDT": 19450.0,
      "DCDECOD": "COMPLETED",
      "EOSSTT": "COMPLETED",
      "DCSREAS": "",
      "MMSETOT": 23.0
    },
    {
      "STUDYID": "CDISCPILOT01",
      "USUBJID": "01-701-1341",
      "SUBJID": "1341",
      "SITEID": "701",
      "SITEGR1": "701",
      "ARM": "Xanomeline Low Dose",
      "TRT01P": "Xanomeline Low Dose",
      "TRT01PN": 54.0,
      "TRT01A": "Xanomeline Low Dose",
      "TRT01AN": 54.0,
      "TRTSDT": 19363.0,
      "TRTEDT": 19384.0,
      "TRTDURD": 22.0,
      "AVGDD": 54.0,
      "CUMDOSE": 1188.0,
      "AGE": 51.0,
      "AGEGR1": "<65",
      "AGEGR1N": 1.0,
      "AGEU": "YEARS",
      "RACE": "WHITE",
      "RACEN": 1.0,
      "SEX": "M",
      "ETHNIC": "NOT HISPANIC OR LATINO",
      "SAFFL": "Y",
      "ITTFL": "Y",
      "EFFFL": "Y",
      "COMP8FL": "N",
      "COMP16FL": "N",
      "COMP24FL": "N",
      "DISCONFL": "Y",
      "DSRAEFL": "Y",
      "DTHFL": "",
      "BMIBL": 28.5,
      "BMIBLGR1": "25-<30",
      "HEIGHTBL": 157.5,
      "WEIGHTBL": 70.8,
      "EDUCLVL": 24.0,
      "DISONSDT": 16957.0,
      "DURDIS": 78.6,
      "DURDSGR1": ">=12",
      "VISIT1DT": 19349.0,
      "RFSTDTC": "2013-01-05",
      "RFENDTC": "2013-02-07",
      "VISNUMEN": 5.0,
      "RFENDT": 19396.0,
      "DCDECOD": "ADVERSE EVENT",
      "EOSSTT": "DISCONTINUED",
      "DCSREAS": "Adverse Event",
      "MMSETOT": 23.0
    },
    {
      "STUDYID": "CDISCPILOT01",
      "USUBJID": "01-701-1345",
      "SUBJID": "1345",
      "SITEID": "701",
      "SITEGR1": "701",
      "ARM": "Placebo",
      "TRT01P": "Placebo",
      "TRT01PN": 5.397605346934028e-79,
      "TRT01A": "Placebo",
      "TRT01AN": 5.397605346934028e-79,
      "TRTSDT": 19639.0,
      "TRTEDT": 19800.0,
      "TRTDURD": 162.0,
      "AVGDD": 5.397605346934028e-79,
      "CUMDOSE": 5.397605346934028e-79,
      "AGE": 63.0,
      "AGEGR1": "<65",
      "AGEGR1N": 1.0,
      "AGEU": "YEARS",
      "RACE": "WHITE",
      "RACEN": 1.0,
      "SEX": "F",
      "ETHNIC": "NOT HISPANIC OR LATINO",
      "SAFFL": "Y",
      "ITTFL": "Y",
      "EFFFL": "Y",
      "COMP8FL": "Y",
      "COMP16FL": "Y",
      "COMP24FL": "Y",
      "DISCONFL": "Y",
      "DSRAEFL": "",
      "DTHFL": "",
      "BMIBL": 18.6,
      "BMIBLGR1": "<25",
      "HEIGHTBL": 174.0,
      "WEIGHTBL": 56.3,
      "EDUCLVL": 15.0,
      "DISONSDT": 18571.0,
      "DURDIS": 34.9,
      "DURDSGR1": ">=12",
      "VISIT1DT": 19632.0,
      "RFSTDTC": "2013-10-08",
      "RFENDTC": "2014-03-18",
      "VISNUMEN": 12.0,
      "RFENDT": 19800.0,
      "DCDECOD": "STUDY TERMINATED BY SPONSOR",
      "EOSSTT": "DISCONTINUED",
      "DCSREAS": "Sponsor Decision",
      "MMSETOT": 23.0
    },
    {
      "STUDYID": "CDISCPILOT01",
      "USUBJID": "01-701-1360",
      "SUBJID": "1360",
      "SITEID": "701",
      "SITEGR1": "701",
      "ARM": "Xanomeline High Dose",
      "TRT01P": "Xanomeline High Dose",
      "TRT01PN": 81.0,
      "TRT01A": "Xanomeline High Dose",
      "TRT01AN": 81.0,
      "TRTSDT": 19570.0,
      "TRTEDT": 19575.0,
      "TRTDURD": 6.0,
      "AVGDD": 54.0,
      "CUMDOSE": 324.0,
      "AGE": 67.0,
      "AGEGR1": "65-80",
      "AGEGR1N": 2.0,
      "AGEU": "YEARS",
      "RACE": "WHITE",
      "RACEN": 1.0,
      "SEX": "M",
      "ETHNIC": "NOT HISPANIC OR LATINO",
      "SAFFL": "Y",
      "ITTFL": "Y",
      "EFFFL": "Y",
      "COMP8FL": "N",
      "COMP16FL": "N",
      "COMP24FL": "N",
      "DISCONFL": "Y",
      "DSRAEFL": "",
      "DTHFL": "",
      "BMIBL": 29.0,
      "BMIBLGR1": "25-<30",
      "HEIGHTBL": 166.4,
      "WEIGHTBL": 80.3,
      "EDUCLVL": 10.0,
      "DISONSDT": 17868.0,
      "DURDIS": 55.7,
      "DURDSGR1": ">=12",
      "VISIT1DT": 19563.0,
      "RFSTDTC": "2013-07-31",
      "RFENDTC": "2013-08-14",
      "VISNUMEN": 4.0,
      "RFENDT": 19584.0,
      "DCDECOD": "PHYSICIAN DECISION",
      "EOSSTT": "DISCONTINUED",
      "DCSREAS": "Physician Decision",
      "MMSETOT": 23.0
    },
    {
      "STUDYID": "CDISCPILOT01",
      "USUBJID": "01-701-1363",
      "SUBJID": "1363",
      "SITEID": "701",
      "SITEGR1": "701",
      "ARM": "Placebo",
      "TRT01P": "Placebo",
      "TRT01PN": 5.397605346934028e-79,
      "TRT01A": "Placebo",
      "TRT01AN": 5.397605346934028e-79,
      "TRTSDT": 19508.0,
      "TRTEDT": 19689.0,
      "TRTDURD": 182.0,
      "AVGDD": 5.397605346934028e-79,
      "CUMDOSE": 5.397605346934028e-79,
      "AGE": 81.0,
      "AGEGR1": ">80",
      "AGEGR1N": 3.0,
      "AGEU": "YEARS",
      "RACE": "BLACK OR AFRICAN AMERICAN",
      "RACEN": 2.0,
      "SEX": "F",
      "ETHNIC": "NOT HISPANIC OR LATINO",
      "SAFFL": "Y",
      "ITTFL": "Y",
      "EFFFL": "Y",
      "COMP8FL": "Y",
      "COMP16FL": "Y",
      "COMP24FL": "Y",
      "DISCONFL": "",
      "DSRAEFL": "",
      "DTHFL": "",
      "BMIBL": 24.9,
      "BMIBLGR1": "<25",
      "HEIGHTBL": 161.3,
      "WEIGHTBL": 64.9,
      "EDUCLVL": 13.0,
      "DISONSDT": 16729.0,
      "DURDIS": 91.0,
      "DURDSGR1": ">=12",
      "VISIT1DT": 19498.0,
      "RFSTDTC": "2013-05-30",
      "RFENDTC": "2013-11-27",
      "VISNUMEN": 12.0,
      "RFENDT": 19689.0,
      "DCDECOD": "COMPLETED",
      "EOSSTT": "COMPLETED",
      "DCSREAS": "",
      "MMSETOT": 22.0
    },
    {
      "STUDYID": "CDISCPILOT01",
      "USUBJID": "01-701-1383",
      "SUBJID": "1383",
      "SITEID": "701",
      "SITEGR1": "701",
      "ARM": "Xanomeline High Dose",
      "TRT01P": "Xanomeline High Dose",
      "TRT01PN": 81.0,
      "TRT01A": "Xanomeline High Dose",
      "TRT01AN": 81.0,
      "TRTSDT": 19393.0,
      "TRTEDT": 19576.0,
      "TRTDURD": 184.0,
      "AVGDD": 77.6,
      "CUMDOSE": 14283.0,
      "AGE": 72.0,
      "AGEGR1": "65-80",
      "AGEGR1N": 2.0,
      "AGEU": "YEARS",
      "RACE": "WHITE",
      "RACEN": 1.0,
      "SEX": "F",
      "ETHNIC": "NOT HISPANIC OR LATINO",
      "SAFFL": "Y",
      "ITTFL": "Y",
      "EFFFL": "Y",
      "COMP8FL": "Y",
      "COMP16FL": "Y",
      "COMP24FL": "Y",
      "DISCONFL": "",
      "DSRAEFL": "",
      "DTHFL": "",
      "BMIBL": 31.6,
      "BMIBLGR1": ">=30",
      "HEIGHTBL": 163.8,
      "WEIGHTBL": 84.8,
      "EDUCLVL": 12.0,
      "DISONSDT": 17033.0,
      "DURDIS": 77.1,
      "DURDSGR1": ">=12",
      "VISIT1DT": 19380.0,
      "RFSTDTC": "2013-02-04",
      "RFENDTC": "2013-08-06",
      "VISNUMEN": 12.0,
      "RFENDT": 19576.0,
      "DCDECOD": "COMPLETED",
      "EOSSTT": "COMPLETED",
      "DCSREAS": "",
      "MMSETOT": 22.0
    },
    {
      "STUDYID": "CDISCPILOT01",
      "USUBJID": "01-701-1387",
      "SUBJID": "1387",
      "SITEID": "701",
      "SITEGR1": "701",
      "ARM": "Placebo",
      "TRT01P": "Placebo",
      "TRT01PN": 5.397605346934028e-79,
      "TRT01A": "Placebo",
      "TRT01AN": 5.397605346934028e-79,
      "TRTSDT": 19794.0,
      "TRTEDT": 19807.0,
      "TRTDURD": 14.0,
      "AVGDD": 5.397605346934028e-79,
      "CUMDOSE": 5.397605346934028e-79,
      "AGE": 87.0,
      "AGEGR1": ">80",
      "AGEGR1N": 3.0,
      "AGEU": "YEARS",
      "RACE": "WHITE",
      "RACEN": 1.0,
      "SEX": "F",
      "ETHNIC": "NOT HISPANIC OR LATINO",
      "SAFFL": "Y",
      "ITTFL": "Y",
      "EFFFL": "Y",
      "COMP8FL": "N",
      "COMP16FL": "N",
      "COMP24FL": "N",
      "DISCONFL": "Y",
      "DSRAEFL": "",
      "DTHFL": "",
      "BMIBL": 22.5,
      "BMIBLGR1": "<25",
      "HEIGHTBL": 162.6,
      "WEIGHTBL": 59.4,
      "EDUCLVL": 12.0,
      "DISONSDT": 15934.0,
      "DURDIS": 126.3,
      "DURDSGR1": ">=12",
      "VISIT1DT": 19777.0,
      "RFSTDTC": "2014-03-12",
      "RFENDTC": "2014-03-25",
      "VISNUMEN": 4.0,
      "RFENDT": 19807.0,
      "DCDECOD": "PROTOCOL VIOLATION",
      "EOSSTT": "DISCONTINUED",
      "DCSREAS": "Protocol Violation",
      "MMSETOT": 11.0
    },
    {
      "STUDYID": "CDISCPILOT01",
      "USUBJID": "01-701-1392",
      "SUBJID": "1392",
      "SITEID": "701",
      "SITEGR1": "701",
      "ARM": "Placebo",
      "TRT01P": "Placebo",
      "TRT01PN": 5.397605346934028e-79,
      "TRT01A": "Placebo",
      "TRT01AN": 5.397605346934028e-79,
      "TRTSDT": 19294.0,
      "TRTEDT": 19476.0,
      "TRTDURD": 183.0,
      "AVGDD": 5.397605346934028e-79,
      "CUMDOSE": 5.397605346934028e-79,
      "AGE": 78.0,
      "AGEGR1": "65-80",
      "AGEGR1N": 2.0,
      "AGEU": "YEARS",
      "RACE": "WHITE",
      "RACEN": 1.0,
      "SEX": "M",
      "ETHNIC": "NOT HISPANIC OR LATINO",
      "SAFFL": "Y",
      "ITTFL": "Y",
      "EFFFL": "Y",
      "COMP8FL": "Y",
      "COMP16FL": "Y",
      "COMP24FL": "Y",
      "DISCONFL": "",
      "DSRAEFL": "",
      "DTHFL": "",
      "BMIBL": 28.9,
      "BMIBLGR1": "25-<30",
      "HEIGHTBL": 167.6,
      "WEIGHTBL": 81.2,
      "EDUCLVL": 16.0,
      "DISONSDT": 18377.0,
      "DURDIS": 29.8,
      "DURDSGR1": ">=12",
      "VISIT1DT": 19283.0,
      "RFSTDTC": "2012-10-28",
      "RFENDTC": "2013-04-28",
      "VISNUMEN": 12.0,
      "RFENDT": 19476.0,
      "DCDECOD": "COMPLETED",
      "EOSSTT": "COMPLETED",
      "DCSREAS": "",
      "MMSETOT": 23.0
    },
    {
      "STUDYID": "CDISCPILOT01",
      "USUBJID": "01-701-1415",
      "SUBJID": "1415",
      "SITEID": "701",
      "SITEGR1": "701",
      "ARM": "Placebo",
      "TRT01P": "Placebo",
      "TRT01PN": 5.397605346934028e-79,
      "TRT01A": "Placebo",
      "TRT01AN": 5.397605346934028e-79,
      "TRTSDT": 19624.0,
      "TRTEDT": 19806.0,
      "TRTDURD": 183.0,
      "AVGDD": 5.397605346934028e-79,
      "CUMDOSE": 5.397605346934028e-79,
      "AGE": 85.0,
      "AGEGR1": ">80",
      "AGEGR1N": 3.0,
      "AGEU": "YEARS",
      "RACE": "WHITE",
      "RACEN": 1.0,
      "SEX": "M",
      "ETHNIC": "NOT HISPANIC OR LATINO",
      "SAFFL": "Y",
      "ITTFL": "Y",
      "EFFFL": "Y",
      "COMP8FL": "Y",
      "COMP16FL": "Y",
      "COMP24FL": "Y",
      "DISCONFL": "",
      "DSRAEFL": "",
      "DTHFL": "",
      "BMIBL": 25.0,
      "BMIBLGR1": "25-<30",
      "HEIGHTBL": 175.3,
      "WEIGHTBL": 76.7,
      "EDUCLVL": 10.0,
      "DISONSDT": 14043.0,
      "DURDIS": 183.1,
      "DURDSGR1": ">=12",
      "VISIT1DT": 19616.0,
      "RFSTDTC": "2013-09-23",
      "RFENDTC": "2014-03-24",
      "VISNUMEN": 12.0,
      "RFENDT": 19806.0,
      "DCDECOD": "COMPLETED",
      "EOSSTT": "COMPLETED",
      "DCSREAS": "",
      "MMSETOT": 18.0
    },
    {
      "STUDYID": "CDISCPILOT01",
      "USUBJID": "01-701-1429",
      "SUBJID": "1429",
      "SITEID": "701",
      "SITEGR1": "701",
      "ARM": "Xanomeline Low Dose",
      "TRT01P": "Xanomeline Low Dose",
      "TRT01PN": 54.0,
      "TRT01A": "Xanomeline Low Dose",
      "TRT01AN": 54.0,
      "TRTSDT": 19436.0,
      "TRTEDT": 19478.0,
      "TRTDURD": 43.0,
      "AVGDD": 54.0,
      "CUMDOSE": 2322.0,
      "AGE": 84.0,
      "AGEGR1": ">80",
      "AGEGR1N": 3.0,
      "AGEU": "YEARS",
      "RACE": "WHITE",
      "RACEN": 1.0,
      "SEX": "F",
      "ETHNIC": "NOT HISPANIC OR LATINO",
      "SAFFL": "Y",
      "ITTFL": "Y",
      "EFFFL": "Y",
      "COMP8FL": "N",
      "COMP16FL": "N",
      "COMP24FL": "N",
      "DISCONFL": "Y",
      "DSRAEFL": "",
      "DTHFL": "",
      "BMIBL": 25.7,
      "BMIBLGR1": "25-<30",
      "HEIGHTBL": 148.6,
      "WEIGHTBL": 56.7,
      "EDUCLVL": 12.0,
      "DISONSDT": 17700.0,
      "DURDIS": 56.3,
      "DURDSGR1": ">=12",
      "VISIT1DT": 19414.0,
      "RFSTDTC": "2013-03-19",
      "RFENDTC": "2013-04-30",
      "VISNUMEN": 7.0,
      "RFENDT": 19478.0,
      "DCDECOD": "WITHDRAWAL BY SUBJECT",
      "EOSSTT": "DISCONTINUED",
      "DCSREAS": "Withdrew Consent",
      "MMSETOT": 17.0
    },
    {
      "STUDYID": "CDISCPILOT01",
      "USUBJID": "01-701-1440",
      "SUBJID": "1440",
      "SITEID": "701",
      "SITEGR1": "701",
      "ARM": "Placebo",
      "TRT01P": "Placebo",
      "TRT01PN": 5.397605346934028e-79,
      "TRT01A": "Placebo",
      "TRT01AN": 5.397605346934028e-79,
      "TRTSDT": 19578.0,
      "TRTEDT": 19759.0,
      "TRTDURD": 182.0,
      "AVGDD": 5.397605346934028e-79,
      "CUMDOSE": 5.397605346934028e-79,
      "AGE": 70.0,
      "AGEGR1": "65-80",
      "AGEGR1N": 2.0,
      "AGEU": "YEARS",
      "RACE": "WHITE",
      "RACEN": 1.0,
      "SEX": "M",
      "ETHNIC": "NOT HISPANIC OR LATINO",
      "SAFFL": "Y",
      "ITTFL": "Y",
      "EFFFL": "Y",
      "COMP8FL": "Y",
      "COMP16FL": "Y",
      "COMP24FL": "Y",
      "DISCONFL": "",
      "DSRAEFL": "",
      "DTHFL": "",
      "BMIBL": 20.2,
      "BMIBLGR1": "<25",
      "HEIGHTBL": 156.2,
      "WEIGHTBL": 49.4,
      "EDUCLVL": 18.0,
      "DISONSDT": 18724.0,
      "DURDIS": 27.6,
      "DURDSGR1": ">=12",
      "VISIT1DT": 19563.0,
      "RFSTDTC": "2013-08-08",
      "RFENDTC": "2014-02-05",
      "VISNUMEN": 12.0,
      "RFENDT": 19759.0,
      "DCDECOD": "COMPLETED",
      "EOSSTT": "COMPLETED",
      "DCSREAS": "",
      "MMSETOT": 22.0
    },
    {
      "STUDYID": "CDISCPILOT01",
      "USUBJID": "01-701-1442",
      "SUBJID": "1442",
      "SITEID": "701",
      "SITEGR1": "701",
      "ARM": "Xanomeline Low Dose",
      "TRT01P": "Xanomeline Low Dose",
      "TRT01PN": 54.0,
      "TRT01A": "Xanomeline Low Dose",
      "TRT01AN": 54.0,
      "TRTSDT": 19657.0,
      "TRTEDT": 19839.0,
      "TRTDURD": 183.0,
      "AVGDD": 54.0,
      "CUMDOSE": 9882.0,
      "AGE": 57.0,
      "AGEGR1": "<65",
      "AGEGR1N": 1.0,
      "AGEU": "YEARS",
      "RACE": "BLACK OR AFRICAN AMERICAN",
      "RACEN": 2.0,
      "SEX": "F",
      "ETHNIC": "NOT HISPANIC OR LATINO",
      "SAFFL": "Y",
      "ITTFL": "Y",
      "EFFFL": "Y",
      "COMP8FL": "Y",
      "COMP16FL": "Y",
      "COMP24FL": "Y",
      "DISCONFL": "",
      "DSRAEFL": "",
      "DTHFL": "",
      "BMIBL": 40.1,
      "BMIBLGR1": ">=30",
      "HEIGHTBL": 162.6,
      "WEIGHTBL": 106.1,
      "EDUCLVL": 12.0,
      "DISONSDT": 16852.0,
      "DURDIS": 91.9,
      "DURDSGR1": ">=12",
      "VISIT1DT": 19648.0,
      "RFSTDTC": "2013-10-26",
      "RFENDTC": "2014-04-26",
      "VISNUMEN": 12.0,
      "RFENDT": 19839.0,
      "DCDECOD": "COMPLETED",
      "EOSSTT": "COMPLETED",
      "DCSREAS": "",
      "MMSETOT": 15.0
    },
    {
      "STUDYID": "CDISCPILOT01",
      "USUBJID": "01-701-1444",
      "SUBJID": "1444",
      "SITEID": "701",
      "SITEGR1": "701",
      "ARM": "Xanomeline High Dose",
      "TRT01P": "Xanomeline High Dose",
      "TRT01PN": 81.0,
      "TRT01A": "Xanomeline High Dose",
      "TRT01AN": 81.0,
      "TRTSDT": 19363.0,
      "TRTEDT": 19401.0,
      "TRTDURD": 39.0,
      "AVGDD": 71.3,
      "CUMDOSE": 2781.0,
      "AGE": 63.0,
      "AGEGR1": "<65",
      "AGEGR1N": 1.0,
      "AGEU": "YEARS",
      "RACE": "WHITE",
      "RACEN": 1.0,
      "SEX": "M",
      "ETHNIC": "HISPANIC OR LATINO",
      "SAFFL": "Y",
      "ITTFL": "Y",
      "EFFFL": "Y",
      "COMP8FL": "N",
      "COMP16FL": "N",
      "COMP24FL": "N",
      "DISCONFL": "Y",
      "DSRAEFL": "Y",
      "DTHFL": "",
      "BMIBL": 34.5,
      "BMIBLGR1": ">=30",
      "HEIGHTBL": 171.5,
      "WEIGHTBL": 101.6,
      "EDUCLVL": 14.0,
      "DISONSDT": 17673.0,
      "DURDIS": 55.4,
      "DURDSGR1": ">=12",
      "VISIT1DT": 19358.0,
      "RFSTDTC": "2013-01-05",
      "RFENDTC": "2013-02-13",
      "VISNUMEN": 7.0,
      "RFENDT": 19402.0,
      "DCDECOD": "ADVERSE EVENT",
      "EOSSTT": "DISCONTINUED",
      "DCSREAS": "Adverse Event",
      "MMSETOT": 23.0
    },
    {
      "STUDYID": "CDISCPILOT01",
      "USUBJID": "01-702-1082",
      "SUBJID": "1082",
      "SITEID": "702",
      "SITEGR1": "900",
      "ARM": "Xanomeline Low Dose",
      "TRT01P": "Xanomeline Low Dose",
      "TRT01PN": 54.0,
      "TRT01A": "Xanomeline Low Dose",
      "TRT01AN": 54.0,
      "TRTSDT": 19565.0,
      "TRTEDT": 19644.0,
      "TRTDURD": 80.0,
      "AVGDD": 54.0,
      "CUMDOSE": 4320.0,
      "AGE": 84.0,
      "AGEGR1": ">80",
      "AGEGR1N": 3.0,
      "AGEU": "YEARS",
      "RACE": "WHITE",
      "RACEN": 1.0,
      "SEX": "F",
      "ETHNIC": "NOT HISPANIC OR LATINO",
      "SAFFL": "Y",
      "ITTFL": "Y",
      "EFFFL": "Y",
      "COMP8FL": "Y",
      "COMP16FL": "N",
      "COMP24FL": "N",
      "DISCONFL": "Y",
      "DSRAEFL": "",
      "DTHFL": "",
      "BMIBL": NaN,
      "BMIBLGR1": "<25",
      "HEIGHTBL": 154.9,
      "WEIGHTBL": NaN,
      "EDUCLVL": 18.0,
      "DISONSDT": 17303.0,
      "DURDIS": 73.6,
      "DURDSGR1": ">=12",
      "VISIT1DT": 19542.0,
      "RFSTDTC": "2013-07-26",
      "RFENDTC": "2013-11-17",
      "VISNUMEN": 9.0,
      "RFENDT": 19679.0,
      "DCDECOD": "WITHDRAWAL BY SUBJECT",
      "EOSSTT": "DISCONTINUED",
      "DCSREAS": "Withdrew Consent",
      "MMSETOT": 23.0
    },
    {
      "STUDYID": "CDISCPILOT01",
      "USUBJID": "01-703-1042",
      "SUBJID": "1042",
      "SITEID": "703",
      "SITEGR1": "703",
      "ARM": "Placebo",
      "TRT01P": "Placebo",
      "TRT01PN": 5.397605346934028e-79,
      "TRT01A": "Placebo",
      "TRT01AN": 5.397605346934028e-79,
      "TRTSDT": 19419.0,
      "TRTEDT": 19601.0,
      "TRTDURD": 183.0,
      "AVGDD": 5.397605346934028e-79,
      "CUMDOSE": 5.397605346934028e-79,
      "AGE": 64.0,
      "AGEGR1": "<65",
      "AGEGR1N": 1.0,
      "AGEU": "YEARS",
      "RACE": "WHITE",
      "RACEN": 1.0,
      "SEX": "M",
      "ETHNIC": "NOT HISPANIC OR LATINO",
      "SAFFL": "Y",
      "ITTFL": "Y",
      "EFFFL": "Y",
      "COMP8FL": "Y",
      "COMP16FL": "Y",
      "COMP24FL": "Y",
      "DISCONFL": "",
      "DSRAEFL": "",
      "DTHFL": "",
      "BMIBL": 23.5,
      "BMIBLGR1": "<25",
      "HEIGHTBL": 177.8,
      "WEIGHTBL": 74.4,
      "EDUCLVL": 12.0,
      "DISONSDT": 17736.0,
      "DURDIS": 55.1,
      "DURDSGR1": ">=12",
      "VISIT1DT": 19412.0,
      "RFSTDTC": "2013-03-02",
      "RFENDTC": "2013-08-31",
      "VISNUMEN": 12.0,
      "RFENDT": 19601.0,
      "DCDECOD": "COMPLETED",
      "EOSSTT": "COMPLETED",
      "DCSREAS": "",
      "MMSETOT": 23.0
    },
    {
      "STUDYID": "CDISCPILOT01",
      "USUBJID": "01-703-1076",
      "SUBJID": "1076",
      "SITEID": "703",
      "SITEGR1": "703",
      "ARM": "Xanomeline High Dose",
      "TRT01P": "Xanomeline High Dose",
      "TRT01PN": 81.0,
      "TRT01A": "Xanomeline High Dose",
      "TRT01AN": 81.0,
      "TRTSDT": 19656.0,
      "TRTEDT": 19716.0,
      "TRTDURD": 61.0,
      "AVGDD": 75.2,
      "CUMDOSE": 4590.0,
      "AGE": 69.0,
      "AGEGR1": "65-80",
      "AGEGR1N": 2.0,
      "AGEU": "YEARS",
      "RACE": "WHITE",
      "RACEN": 1.0,
      "SEX": "M",
      "ETHNIC": "NOT HISPANIC OR LATINO",
      "SAFFL": "Y",
      "ITTFL": "Y",
      "EFFFL": "Y",
      "COMP8FL": "Y",
      "COMP16FL": "N",
      "COMP24FL": "N",
      "DISCONFL": "Y",
      "DSRAEFL": "Y",
      "DTHFL": "",
      "BMIBL": 32.0,
      "BMIBLGR1": ">=30",
      "HEIGHTBL": 165.1,
      "WEIGHTBL": 87.1,
      "EDUCLVL": 10.0,
      "DISONSDT": 19232.0,
      "DURDIS": 13.7,
      "DURDSGR1": ">=12",
      "VISIT1DT": 19648.0,
      "RFSTDTC": "2013-10-25",
      "RFENDTC": "2013-12-24",
      "VISNUMEN": 9.0,
      "RFENDT": 19716.0,
      "DCDECOD": "ADVERSE EVENT",
      "EOSSTT": "DISCONTINUED",
      "DCSREAS": "Adverse Event",
      "MMSETOT": 23.0
    },
    {
      "STUDYID": "CDISCPILOT01",
      "USUBJID": "01-703-1086",
      "SUBJID": "1086",
      "SITEID": "703",
      "SITEGR1": "703",
      "ARM": "Xanomeline Low Dose",
      "TRT01P": "Xanomeline Low Dose",
      "TRT01PN": 54.0,
      "TRT01A": "Xanomeline Low Dose",
      "TRT01AN": 54.0,
      "TRTSDT": 19238.0,
      "TRTEDT": 19331.0,
      "TRTDURD": 94.0,
      "AVGDD": 54.0,
      "CUMDOSE": 5076.0,
      "AGE": 71.0,
      "AGEGR1": "65-80",
      "AGEGR1N": 2.0,
      "AGEU": "YEARS",
      "RACE": "WHITE",
      "RACEN": 1.0,
      "SEX": "M",
      "ETHNIC": "NOT HISPANIC OR LATINO",
      "SAFFL": "Y",
      "ITTFL": "Y",
      "EFFFL": "Y",
      "COMP8FL": "Y",
      "COMP16FL": "Y",
      "COMP24FL": "N",
      "DISCONFL": "Y",
      "DSRAEFL": "Y",
      "DTHFL": "",
      "BMIBL": 25.0,
      "BMIBLGR1": "25-<30",
      "HEIGHTBL": 195.6,
      "WEIGHTBL": 95.7,
      "EDUCLVL": 17.0,
      "DISONSDT": 18744.0,
      "DURDIS": 15.9,
      "DURDSGR1": ">=12",
      "VISIT1DT": 19227.0,
      "RFSTDTC": "2012-09-02",
      "RFENDTC": "2012-12-24",
      "VISNUMEN": 10.0,
      "RFENDT": 19351.0,
      "DCDECOD": "ADVERSE EVENT",
      "EOSSTT": "DISCONTINUED",
      "DCSREAS": "Adverse Event",
      "MMSETOT": 17.0
    },
    {
      "STUDYID": "CDISCPILOT01",
      "USUBJID": "01-703-1096",
      "SUBJID": "1096",
      "SITEID": "703",
      "SITEGR1": "703",
      "ARM": "Placebo",
      "TRT01P": "Placebo",
      "TRT01PN": 5.397605346934028e-79,
      "TRT01A": "Placebo",
      "TRT01AN": 5.397605346934028e-79,
      "TRTSDT": 19383.0,
      "TRTEDT": 19433.0,
      "TRTDURD": 51.0,
      "AVGDD": 5.397605346934028e-79,
      "CUMDOSE": 5.397605346934028e-79,
      "AGE": 81.0,
      "AGEGR1": ">80",
      "AGEGR1N": 3.0,
      "AGEU": "YEARS",
      "RACE": "WHITE",
      "RACEN": 1.0,
      "SEX": "F",
      "ETHNIC": "NOT HISPANIC OR LATINO",
      "SAFFL": "Y",
      "ITTFL": "Y",
      "EFFFL": "N",
      "COMP8FL": "N",
      "COMP16FL": "N",
      "COMP24FL": "N",
      "DISCONFL": "Y",
      "DSRAEFL": "",
      "DTHFL": "",
      "BMIBL": 31.7,
      "BMIBLGR1": ">=30",
      "HEIGHTBL": 160.0,
      "WEIGHTBL": 81.2,
      "EDUCLVL": 6.0,
      "DISONSDT": 17155.0,
      "DURDIS": 72.0,
      "DURDSGR1": ">=12",
      "VISIT1DT": 19346.0,
      "RFSTDTC": "2013-01-25",
      "RFENDTC": "2013-03-29",
      "VISNUMEN": 7.0,
      "RFENDT": 19446.0,
      "DCDECOD": "LOST TO FOLLOW-UP",
      "EOSSTT": "DISCONTINUED",
      "DCSREAS": "Lost to Follow-up",
      "MMSETOT": 22.0
    },
    {
      "STUDYID": "CDISCPILOT01",
      "USUBJID": "01-703-1100",
      "SUBJID": "1100",
      "SITEID": "703",
      "SITEGR1": "703",
      "ARM": "Placebo",
      "TRT01P": "Placebo",
      "TRT01PN": 5.397605346934028e-79,
      "TRT01A": "Placebo",
      "TRT01AN": 5.397605346934028e-79,
      "TRTSDT": 19430.0,
      "TRTEDT": 19615.0,
      "TRTDURD": 186.0,
      "AVGDD": 5.397605346934028e-79,
      "CUMDOSE": 5.397605346934028e-79,
      "AGE": 84.0,
      "AGEGR1": ">80",
      "AGEGR1N": 3.0,
      "AGEU": "YEARS",
      "RACE": "WHITE",
      "RACEN": 1.0,
      "SEX": "F",
      "ETHNIC": "NOT HISPANIC OR LATINO",
      "SAFFL": "Y",
      "ITTFL": "Y",
      "EFFFL": "Y",
      "COMP8FL": "Y",
      "COMP16FL": "Y",
      "COMP24FL": "Y",
      "DISCONFL": "",
      "DSRAEFL": "",
      "DTHFL": "",
      "BMIBL": 21.8,
      "BMIBLGR1": "<25",
      "HEIGHTBL": 167.6,
      "WEIGHTBL": 61.2,
      "EDUCLVL": 8.0,
      "DISONSDT": 18598.0,
      "DURDIS": 26.9,
      "DURDSGR1": ">=12",
      "VISIT1DT": 19417.0,
      "RFSTDTC": "2013-03-13",
      "RFENDTC": "2013-09-14",
      "VISNUMEN": 12.0,
      "RFENDT": 19615.0,
      "DCDECOD": "COMPLETED",
      "EOSSTT": "COMPLETED",
      "DCSREAS": "",
      "MMSETOT": 22.0
    },
    {
      "STUDYID": "CDISCPILOT01",
      "USUBJID": "01-703-1119",
      "SUBJID": "1119",
      "SITEID": "703",
      "SITEGR1": "703",
      "ARM": "Xanomeline Low Dose",
      "TRT01P": "Xanomeline Low Dose",
      "TRT01PN": 54.0,
      "TRT01A": "Xanomeline Low Dose",
      "TRT01AN": 54.0,
      "TRTSDT": 19409.0,
      "TRTEDT": 19522.0,
      "TRTDURD": 114.0,
      "AVGDD": 54.0,
      "CUMDOSE": 6156.0,
      "AGE": 81.0,
      "AGEGR1": ">80",
      "AGEGR1N": 3.0,
      "AGEU": "YEARS",
      "RACE": "WHITE",
      "RACEN": 1.0,
      "SEX": "F",
      "ETHNIC": "NOT HISPANIC OR LATINO",
      "SAFFL": "Y",
      "ITTFL": "Y",
      "EFFFL": "Y",
      "COMP8FL": "Y",
      "COMP16FL": "Y",
      "COMP24FL": "N",
      "DISCONFL": "Y",
      "DSRAEFL": "Y",
      "DTHFL": "",
      "BMIBL": 18.4,
      "BMIBLGR1": "<25",
      "HEIGHTBL": 160.0,
      "WEIGHTBL": 47.2,
      "EDUCLVL": 16.0,
      "DISONSDT": 16468.0,
      "DURDIS": 96.1,
      "DURDSGR1": ">=12",
      "VISIT1DT": 19391.0,
      "RFSTDTC": "2013-02-20",
      "RFENDTC": "2013-06-13",
      "VISNUMEN": 10.0,
      "RFENDT": 19522.0,
      "DCDECOD": "ADVERSE EVENT",
      "EOSSTT": "DISCONTINUED",
      "DCSREAS": "Adverse Event",
      "MMSETOT": 14.0
    },
    {
      "STUDYID": "CDISCPILOT01",
      "USUBJID": "01-703-1175",
      "SUBJID": "1175",
      "SITEID": "703",
      "SITEGR1": "703",
      "ARM": "Placebo",
      "TRT01P": "Placebo",
      "TRT01PN": 5.397605346934028e-79,
      "TRT01A": "Placebo",
      "TRT01AN": 5.397605346934028e-79,
      "TRTSDT": 19712.0,
      "TRTEDT": 19718.0,
      "TRTDURD": 7.0,
      "AVGDD": 5.397605346934028e-79,
      "CUMDOSE": 5.397605346934028e-79,
      "AGE": 75.0,
      "AGEGR1": "65-80",
      "AGEGR1N": 2.0,
      "AGEU": "YEARS",
      "RACE": "WHITE",
      "RACEN": 1.0,
      "SEX": "M",
      "ETHNIC": "NOT HISPANIC OR LATINO",
      "SAFFL": "Y",
      "ITTFL": "Y",
      "EFFFL": "Y",
      "COMP8FL": "N",
      "COMP16FL": "N",
      "COMP24FL": "N",
      "DISCONFL": "Y",
      "DSRAEFL": "",
      "DTHFL": "",
      "BMIBL": 26.6,
      "BMIBLGR1": "25-<30",
      "HEIGHTBL": 170.2,
      "WEIGHTBL": 77.1,
      "EDUCLVL": 16.0,
      "DISONSDT": 18524.0,
      "DURDIS": 38.8,
      "DURDSGR1": ">=12",
      "VISIT1DT": 19705.0,
      "RFSTDTC": "2013-12-20",
      "RFENDTC": "2013-12-31",
      "VISNUMEN": 4.0,
      "RFENDT": 19723.0,
      "DCDECOD": "PROTOCOL VIOLATION",
      "EOSSTT": "DISCONTINUED",
      "DCSREAS": "I/E Not Met",
      "MMSETOT": 11.0
    },
    {
      "STUDYID": "CDISCPILOT01",
      "USUBJID": "01-703-1182",
      "SUBJID": "1182",
      "SITEID": "703",
      "SITEGR1": "703",
      "ARM": "Xanomeline Low Dose",
      "TRT01P": "Xanomeline Low Dose",
      "TRT01PN": 54.0,
      "TRT01A": "Xanomeline Low Dose",
      "TRT01AN": 54.0,
      "TRTSDT": 19648.0,
      "TRTEDT": 19703.0,
      "TRTDURD": 56.0,
      "AVGDD": 54.0,
      "CUMDOSE": 3024.0,
      "AGE": 84.0,
      "AGEGR1": ">80",
      "AGEGR1N": 3.0,
      "AGEU": "YEARS",
      "RACE": "WHITE",
      "RACEN": 1.0,
      "SEX": "M",
      "ETHNIC": "NOT HISPANIC OR LATINO",
      "SAFFL": "Y",
      "ITTFL": "Y",
      "EFFFL": "Y",
      "COMP8FL": "Y",
      "COMP16FL": "N",
      "COMP24FL": "N",
      "DISCONFL": "Y",
      "DSRAEFL": "Y",
      "DTHFL": "",
      "BMIBL": 22.8,
      "BMIBLGR1": "<25",
      "HEIGHTBL": 172.7,
      "WEIGHTBL": 68.0,
      "EDUCLVL": 12.0,
      "DISONSDT": 18897.0,
      "DURDIS": 24.4,
      "DURDSGR1": ">=12",
      "VISIT1DT": 19639.0,
      "RFSTDTC": "2013-10-17",
      "RFENDTC": "2013-12-12",
      "VISNUMEN": 8.0,
      "RFENDT": 19704.0,
      "DCDECOD": "ADVERSE EVENT",
      "EOSSTT": "DISCONTINUED",
      "DCSREAS": "Adverse Event",
      "MMSETOT": 22.0
    },
    {
      "STUDYID": "CDISCPILOT01",
      "USUBJID": "01-703-1197",
      "SUBJID": "1197",
      "SITEID": "703",
      "SITEGR1": "703",
      "ARM": "Xanomeline Low Dose",
      "TRT01P": "Xanomeline Low Dose",
      "TRT01PN": 54.0,
      "TRT01A": "Xanomeline Low Dose",
      "TRT01AN": 54.0,
      "TRTSDT": 19525.0,
      "TRTEDT": 19538.0,
      "TRTDURD": 14.0,
      "AVGDD": 54.0,
      "CUMDOSE": 756.0,
      "AGE": 76.0,
      "AGEGR1": "65-80",
      "AGEGR1N": 2.0,
      "AGEU": "YEARS",
      "RACE": "BLACK OR AFRICAN AMERICAN",
      "RACEN": 2.0,
      "SEX": "F",
      "ETHNIC": "NOT HISPANIC OR LATINO",
      "SAFFL": "Y",
      "ITTFL": "Y",
      "EFFFL": "Y",
      "COMP8FL": "N",
      "COMP16FL": "N",
      "COMP24FL": "N",
      "DISCONFL": "Y",
      "DSRAEFL": "",
      "DTHFL": "",
      "BMIBL": 38.6,
      "BMIBLGR1": ">=30",
      "HEIGHTBL": 162.6,
      "WEIGHTBL": 102.1,
      "EDUCLVL": 5.0,
      "DISONSDT": 19003.0,
      "DURDIS": 16.7,
      "DURDSGR1": ">=12",
      "VISIT1DT": 19510.0,
      "RFSTDTC": "2013-06-16",
      "RFENDTC": "2013-07-22",
      "VISNUMEN": 4.0,
      "RFENDT": 19561.0,
      "DCDECOD": "WITHDRAWAL BY SUBJECT",
      "EOSSTT": "DISCONTINUED",
      "DCSREAS": "Withdrew Consent",
      "MMSETOT": 12.0
    },
    {
      "STUDYID": "CDISCPILOT01",
      "USUBJID": "01-703-1210",
      "SUBJID": "1210",
      "SITEID": "703",
      "SITEGR1": "703",
      "ARM": "Placebo",
      "TRT01P": "Placebo",
      "TRT01PN": 5.397605346934028e-79,
      "TRT01A": "Placebo",
      "TRT01AN": 5.397605346934028e-79,
      "TRTSDT": 19433.0,
      "TRTEDT": 19607.0,
      "TRTDURD": 175.0,
      "AVGDD": 5.397605346934028e-79,
      "CUMDOSE": 5.397605346934028e-79,
      "AGE": 72.0,
      "AGEGR1": "65-80",
      "AGEGR1N": 2.0,
      "AGEU": "YEARS",
      "RACE": "WHITE",
      "RACEN": 1.0,
      "SEX": "F",
      "ETHNIC": "NOT HISPANIC OR LATINO",
      "SAFFL": "Y",
      "ITTFL": "Y",
      "EFFFL": "Y",
      "COMP8FL": "Y",
      "COMP16FL": "Y",
      "COMP24FL": "Y",
      "DISCONFL": "",
      "DSRAEFL": "",
      "DTHFL": "",
      "BMIBL": 23.8,
      "BMIBLGR1": "<25",
      "HEIGHTBL": 144.8,
      "WEIGHTBL": 49.9,
      "EDUCLVL": 12.0,
      "DISONSDT": 18311.0,
      "DURDIS": 36.6,
      "DURDSGR1": ">=12",
      "VISIT1DT": 19425.0,
      "RFSTDTC": "2013-03-16",
      "RFENDTC": "2013-09-06",
      "VISNUMEN": 12.0,
      "RFENDT": 19607.0,
      "DCDECOD": "COMPLETED",
      "EOSSTT": "COMPLETED",
      "DCSREAS": "",
      "MMSETOT": 19.0
    },
    {
      "STUDYID": "CDISCPILOT01",
      "USUBJID": "01-703-1258",
      "SUBJID": "1258",
      "SITEID": "703",
      "SITEGR1": "703",
      "ARM": "Xanomeline High Dose",
      "TRT01P": "Xanomeline High Dose",
      "TRT01PN": 81.0,
      "TRT01A": "Xanomeline High Dose",
      "TRT01AN": 81.0,
      "TRTSDT": 19194.0,
      "TRTEDT": 19369.0,
      "TRTDURD": 176.0,
      "AVGDD": 77.3,
      "CUMDOSE": 13608.0,
      "AGE": 78.0,
      "AGEGR1": "65-80",
      "AGEGR1N": 2.0,
      "AGEU": "YEARS",
      "RACE": "WHITE",
      "RACEN": 1.0,
      "SEX": "F",
      "ETHNIC": "NOT HISPANIC OR LATINO",
      "SAFFL": "Y",
      "ITTFL": "Y",
      "EFFFL": "Y",
      "COMP8FL": "Y",
      "COMP16FL": "Y",
      "COMP24FL": "Y",
      "DISCONFL": "Y",
      "DSRAEFL": "Y",
      "DTHFL": "",
      "BMIBL": 24.8,
      "BMIBLGR1": "<25",
      "HEIGHTBL": 154.9,
      "WEIGHTBL": 59.4,
      "EDUCLVL": 12.0,
      "DISONSDT": 16849.0,
      "DURDIS": 76.7,
      "DURDSGR1": ">=12",
      "VISIT1DT": 19184.0,
      "RFSTDTC": "2012-07-20",
      "RFENDTC": "2013-01-21",
      "VISNUMEN": 12.0,
      "RFENDT": 19379.0,
      "DCDECOD": "ADVERSE EVENT",
      "EOSSTT": "DISCONTINUED",
      "DCSREAS": "Adverse Event",
      "MMSETOT": 13.0
    },
    {
      "STUDYID": "CDISCPILOT01",
      "USUBJID": "01-703-1279",
      "SUBJID": "1279",
      "SITEID": "703",
      "SITEGR1": "703",
      "ARM": "Xanomeline Low Dose",
      "TRT01P": "Xanomeline Low Dose",
      "TRT01PN": 54.0,
      "TRT01A": "Xanomeline Low Dose",
      "TRT01AN": 54.0,
      "TRTSDT": 19491.0,
      "TRTEDT": 19512.0,
      "TRTDURD": 22.0,
      "AVGDD": 54.0,
      "CUMDOSE": 1188.0,
      "AGE": 72.0,
      "AGEGR1": "65-80",
      "AGEGR1N": 2.0,
      "AGEU": "YEARS",
      "RACE": "WHITE",
      "RACEN": 1.0,
      "SEX": "F",
      "ETHNIC": "NOT HISPANIC OR LATINO",
      "SAFFL": "Y",
      "ITTFL": "Y",
      "EFFFL": "N",
      "COMP8FL": "N",
      "COMP16FL": "N",
      "COMP24FL": "N",
      "DISCONFL": "Y",
      "DSRAEFL": "",
      "DTHFL": "",
      "BMIBL": 21.1,
      "BMIBLGR1": "<25",
      "HEIGHTBL": 162.6,
      "WEIGHTBL": 55.8,
      "EDUCLVL": 12.0,
      "DISONSDT": 18472.0,
      "DURDIS": 33.0,
      "DURDSGR1": ">=12",
      "VISIT1DT": 19475.0,
      "RFSTDTC": "2013-05-13",
      "RFENDTC": "2013-06-22",
      "VISNUMEN": 4.0,
      "RFENDT": 19531.0,
      "DCDECOD": "WITHDRAWAL BY SUBJECT",
      "EOSSTT": "DISCONTINUED",
      "DCSREAS": "Withdrew Consent",
      "MMSETOT": 14.0
    },
    {
      "STUDYID": "CDISCPILOT01",
      "USUBJID": "01-703-1295",
      "SUBJID": "1295",
      "SITEID": "703",
      "SITEGR1": "703",
      "ARM": "Xanomeline High Dose",
      "TRT01P": "Xanomeline High Dose",
      "TRT01PN": 81.0,
      "TRT01A": "Xanomeline High Dose",
      "TRT01AN": 81.0,
      "TRTSDT": 19683.0,
      "TRTEDT": 19832.0,
      "TRTDURD": 150.0,
      "AVGDD": 78.3,
      "CUMDOSE": 11745.0,
      "AGE": 88.0,
      "AGEGR1": ">80",
      "AGEGR1N": 3.0,
      "AGEU": "YEARS",
      "RACE": "WHITE",
      "RACEN": 1.0,
      "SEX": "F",
      "ETHNIC": "NOT HISPANIC OR LATINO",
      "SAFFL": "Y",
      "ITTFL": "Y",
      "EFFFL": "Y",
      "COMP8FL": "Y",
      "COMP16FL": "Y",
      "COMP24FL": "N",
      "DISCONFL": "Y",
      "DSRAEFL": "",
      "DTHFL": "",
      "BMIBL": 22.7,
      "BMIBLGR1": "<25",
      "HEIGHTBL": 157.5,
      "WEIGHTBL": 56.3,
      "EDUCLVL": 8.0,
      "DISONSDT": 19088.0,
      "DURDIS": 18.7,
      "DURDSGR1": ">=12",
      "VISIT1DT": 19655.0,
      "RFSTDTC": "2013-11-21",
      "RFENDTC": "2014-05-19",
      "VISNUMEN": 11.0,
      "RFENDT": 19862.0,
      "DCDECOD": "WITHDRAWAL BY SUBJECT",
      "EOSSTT": "DISCONTINUED",
      "DCSREAS": "Withdrew Consent",
      "MMSETOT": 20.0
    },
    {
      "STUDYID": "CDISCPILOT01",
      "USUBJID": "01-703-1299",
      "SUBJID": "1299",
      "SITEID": "703",
      "SITEGR1": "703",
      "ARM": "Placebo",
      "TRT01P": "Placebo",
      "TRT01PN": 5.397605346934028e-79,
      "TRT01A": "Placebo",
      "TRT01AN": 5.397605346934028e-79,
      "TRTSDT": 19248.0,
      "TRTEDT": 19430.0,
      "TRTDURD": 183.0,
      "AVGDD": 5.397605346934028e-79,
      "CUMDOSE": 5.397605346934028e-79,
      "AGE": 81.0,
      "AGEGR1": ">80",
      "AGEGR1N": 3.0,
      "AGEU": "YEARS",
      "RACE": "WHITE",
      "RACEN": 1.0,
      "SEX": "F",
      "ETHNIC": "NOT HISPANIC OR LATINO",
      "SAFFL": "Y",
      "ITTFL": "Y",
      "EFFFL": "Y",
      "COMP8FL": "Y",
      "COMP16FL": "Y",
      "COMP24FL": "Y",
      "DISCONFL": "",
      "DSRAEFL": "",
      "DTHFL": "",
      "BMIBL": 19.2,
      "BMIBLGR1": "<25",
      "HEIGHTBL": 153.7,
      "WEIGHTBL": 45.4,
      "EDUCLVL": 12.0,
      "DISONSDT": 18886.0,
      "DURDIS": 11.8,
      "DURDSGR1": "<12",
      "VISIT1DT": 19243.0,
      "RFSTDTC": "2012-09-12",
      "RFENDTC": "2013-03-13",
      "VISNUMEN": 12.0,
      "RFENDT": 19430.0,
      "DCDECOD": "COMPLETED",
      "EOSSTT": "COMPLETED",
      "DCSREAS": "",
      "MMSETOT": 23.0
    },
    {
      "STUDYID": "CDISCPILOT01",
      "USUBJID": "01-703-1335",
      "SUBJID": "1335",
      "SITEID": "703",
      "SITEGR1": "703",
      "ARM": "Xanomeline High Dose",
      "TRT01P": "Xanomeline High Dose",
      "TRT01PN": 81.0,
      "TRT01A": "Xanomeline High Dose",
      "TRT01AN": 81.0,
      "TRTSDT": 19799.0,
      "TRTEDT": 19850.0,
      "TRTDURD": 52.0,
      "AVGDD": 73.2,
      "CUMDOSE": 3807.0,
      "AGE": 67.0,
      "AGEGR1": "65-80",
      "AGEGR1N": 2.0,
      "AGEU": "YEARS",
      "RACE": "BLACK OR AFRICAN AMERICAN",
      "RACEN": 2.0,
      "SEX": "F",
      "ETHNIC": "NOT HISPANIC OR LATINO",
      "SAFFL": "Y",
      "ITTFL": "Y",
      "EFFFL": "Y",
      "COMP8FL": "N",
      "COMP16FL": "N",
      "COMP24FL": "N",
      "DISCONFL": "Y",
      "DSRAEFL": "",
      "DTHFL": "",
      "BMIBL": 23.0,
      "BMIBLGR1": "<25",
      "HEIGHTBL": 154.9,
      "WEIGHTBL": 55.3,
      "EDUCLVL": 11.0,
      "DISONSDT": 17561.0,
      "DURDIS": 73.0,
      "DURDSGR1": ">=12",
      "VISIT1DT": 19782.0,
      "RFSTDTC": "2014-03-17",
      "RFENDTC": "2014-05-24",
      "VISNUMEN": 7.0,
      "RFENDT": 19867.0,
      "DCDECOD": "PROTOCOL VIOLATION",
      "EOSSTT": "DISCONTINUED",
      "DCSREAS": "Protocol Violation",
      "MMSETOT": 10.0
    },
    {
      "STUDYID": "CDISCPILOT01",
      "USUBJID": "01-703-1379",
      "SUBJID": "1379",
      "SITEID": "703",
      "SITEGR1": "703",
      "ARM": "Xanomeline Low Dose",
      "TRT01P": "Xanomeline Low Dose",
      "TRT01PN": 54.0,
      "TRT01A": "Xanomeline Low Dose",
      "TRT01AN": 54.0,
      "TRTSDT": 19623.0,
      "TRTEDT": 19803.0,
      "TRTDURD": 181.0,
      "AVGDD": 54.0,
      "CUMDOSE": 9774.0,
      "AGE": 81.0,
      "AGEGR1": ">80",
      "AGEGR1N": 3.0,
      "AGEU": "YEARS",
      "RACE": "BLACK OR AFRICAN AMERICAN",
      "RACEN": 2.0,
      "SEX": "F",
      "ETHNIC": "NOT HISPANIC OR LATINO",
      "SAFFL": "Y",
      "ITTFL": "Y",
      "EFFFL": "Y",
      "COMP8FL": "Y",
      "COMP16FL": "Y",
      "COMP24FL": "Y",
      "DISCONFL": "",
      "DSRAEFL": "",
      "DTHFL": "",
      "BMIBL": 30.7,
      "BMIBLGR1": ">=30",
      "HEIGHTBL": 157.5,
      "WEIGHTBL": 76.2,
      "EDUCLVL": 7.0,
      "DISONSDT": 18161.0,
      "DURDIS": 47.7,
      "DURDSGR1": ">=12",
      "VISIT1DT": 19613.0,
      "RFSTDTC": "2013-09-22",
      "RFENDTC": "2014-03-21",
      "VISNUMEN": 12.0,
      "RFENDT": 19803.0,
      "DCDECOD": "COMPLETED",
      "EOSSTT": "COMPLETED",
      "DCSREAS": "",
      "MMSETOT": 12.0
    },
    {
      "STUDYID": "CDISCPILOT01",
      "USUBJID": "01-703-1403",
      "SUBJID": "1403",
      "SITEID": "703",
      "SITEGR1": "703",
      "ARM": "Xanomeline High Dose",
      "TRT01P": "Xanomeline High Dose",
      "TRT01PN": 81.0,
      "TRT01A": "Xanomeline High Dose",
      "TRT01AN": 81.0,
      "TRTSDT": 19339.0,
      "TRTEDT": 19340.0,
      "TRTDURD": 2.0,
      "AVGDD": 54.0,
      "CUMDOSE": 108.0,
      "AGE": 67.0,
      "AGEGR1": "65-80",
      "AGEGR1N": 2.0,
      "AGEU": "YEARS",
      "RACE": "WHITE",
      "RACEN": 1.0,
      "SEX": "M",
      "ETHNIC": "NOT HISPANIC OR LATINO",
      "SAFFL": "Y",
      "ITTFL": "Y",
      "EFFFL": "N",
      "COMP8FL": "N",
      "COMP16FL": "N",
      "COMP24FL": "N",
      "DISCONFL": "Y",
      "DSRAEFL": "Y",
      "DTHFL": "",
      "BMIBL": 25.4,
      "BMIBLGR1": "25-<30",
      "HEIGHTBL": 177.8,
      "WEIGHTBL": 80.3,
      "EDUCLVL": 12.0,
      "DISONSDT": 18603.0,
      "DURDIS": 24.0,
      "DURDSGR1": ">=12",
      "VISIT1DT": 19332.0,
      "RFSTDTC": "2012-12-12",
      "RFENDTC": "2012-12-19",
      "VISNUMEN": 4.0,
      "RFENDT": 19346.0,
      "DCDECOD": "ADVERSE EVENT",
      "EOSSTT": "DISCONTINUED",
      "DCSREAS": "Adverse Event",
      "MMSETOT": 23.0
    },
    {
      "STUDYID": "CDISCPILOT01",
      "USUBJID": "01-703-1439",
      "SUBJID": "1439",
      "SITEID": "703",
      "SITEGR1": "703",
      "ARM": "Xanomeline High Dose",
      "TRT01P": "Xanomeline High Dose",
      "TRT01PN": 81.0,
      "TRT01A": "Xanomeline High Dose",
      "TRT01AN": 81.0,
      "TRTSDT": 19794.0,
      "TRTEDT": 19977.0,
      "TRTDURD": 184.0,
      "AVGDD": 76.7,
      "CUMDOSE": 14121.0,
      "AGE": 76.0,
      "AGEGR1": "65-80",
      "AGEGR1N": 2.0,
      "AGEU": "YEARS",
      "RACE": "WHITE",
      "RACEN": 1.0,
      "SEX": "F",
      "ETHNIC": "NOT HISPANIC OR LATINO",
      "SAFFL": "Y",
      "ITTFL": "Y",
      "EFFFL": "Y",
      "COMP8FL": "Y",
      "COMP16FL": "Y",
      "COMP24FL": "Y",
      "DISCONFL": "",
      "DSRAEFL": "",
      "DTHFL": "",
      "BMIBL": 24.8,
      "BMIBLGR1": "<25",
      "HEIGHTBL": 160.0,
      "WEIGHTBL": 63.5,
      "EDUCLVL": 12.0,
      "DISONSDT": 18472.0,
      "DURDIS": 43.2,
      "DURDSGR1": ">=12",
      "VISIT1DT": 19786.0,
      "RFSTDTC": "2014-03-12",
      "RFENDTC": "2014-09-11",
      "VISNUMEN": 12.0,
      "RFENDT": 19977.0,
      "DCDECOD": "COMPLETED",
      "EOSSTT": "COMPLETED",
      "DCSREAS": "",
      "MMSETOT": 16.0
    },
    {
      "STUDYID": "CDISCPILOT01",
      "USUBJID": "01-704-1008",
      "SUBJID": "1008",
      "SITEID": "704",
      "SITEGR1": "704",
      "ARM": "Xanomeline High Dose",
      "TRT01P": "Xanomeline High Dose",
      "TRT01PN": 81.0,
      "TRT01A": "Xanomeline High Dose",
      "TRT01AN": 81.0,
      "TRTSDT": 19371.0,
      "TRTEDT": 19410.0,
      "TRTDURD": 40.0,
      "AVGDD": 70.2,
      "CUMDOSE": 2808.0,
      "AGE": 76.0,
      "AGEGR1": "65-80",
      "AGEGR1N": 2.0,
      "AGEU": "YEARS",
      "RACE": "WHITE",
      "RACEN": 1.0,
      "SEX": "F",
      "ETHNIC": "NOT HISPANIC OR LATINO",
      "SAFFL": "Y",
      "ITTFL": "Y",
      "EFFFL": "Y",
      "COMP8FL": "N",
      "COMP16FL": "N",
      "COMP24FL": "N",
      "DISCONFL": "Y",
      "DSRAEFL": "Y",
      "DTHFL": "",
      "BMIBL": 21.3,
      "BMIBLGR1": "<25",
      "HEIGHTBL": 148.0,
      "WEIGHTBL": 46.7,
      "EDUCLVL": 12.0,
      "DISONSDT": 18917.0,
      "DURDIS": 14.7,
      "DURDSGR1": ">=12",
      "VISIT1DT": 19364.0,
      "RFSTDTC": "2013-01-13",
      "RFENDTC": "2013-02-25",
      "VISNUMEN": 7.0,
      "RFENDT": 19414.0,
      "DCDECOD": "ADVERSE EVENT",
      "EOSSTT": "DISCONTINUED",
      "DCSREAS": "Adverse Event",
      "MMSETOT": 21.0
    },
    {
      "STUDYID": "CDISCPILOT01",
      "USUBJID": "01-704-1009",
      "SUBJID": "1009",
      "SITEID": "704",
      "SITEGR1": "704",
      "ARM": "Xanomeline Low Dose",
      "TRT01P": "Xanomeline Low Dose",
      "TRT01PN": 54.0,
      "TRT01A": "Xanomeline Low Dose",
      "TRT01AN": 54.0,
      "TRTSDT": 19597.0,
      "TRTEDT": 19626.0,
      "TRTDURD": 30.0,
      "AVGDD": 54.0,
      "CUMDOSE": 1620.0,
      "AGE": 83.0,
      "AGEGR1": ">80",
      "AGEGR1N": 3.0,
      "AGEU": "YEARS",
      "RACE": "WHITE",
      "RACEN": 1.0,
      "SEX": "M",
      "ETHNIC": "NOT HISPANIC OR LATINO",
      "SAFFL": "Y",
      "ITTFL": "Y",
      "EFFFL": "Y",
      "COMP8FL": "N",
      "COMP16FL": "N",
      "COMP24FL": "N",
      "DISCONFL": "Y",
      "DSRAEFL": "",
      "DTHFL": "",
      "BMIBL": 20.8,
      "BMIBLGR1": "<25",
      "HEIGHTBL": 179.1,
      "WEIGHTBL": 66.7,
      "EDUCLVL": 16.0,
      "DISONSDT": 17931.0,
      "DURDIS": 54.5,
      "DURDSGR1": ">=12",
      "VISIT1DT": 19590.0,
      "RFSTDTC": "2013-08-27",
      "RFENDTC": "2013-10-02",
      "VISNUMEN": 5.0,
      "RFENDT": 19633.0,
      "DCDECOD": "WITHDRAWAL BY SUBJECT",
      "EOSSTT": "DISCONTINUED",
      "DCSREAS": "Withdrew Consent",
      "MMSETOT": 21.0
    },
    {
      "STUDYID": "CDISCPILOT01",
      "USUBJID": "01-704-1010",
      "SUBJID": "1010",
      "SITEID": "704",
      "SITEGR1": "704",
      "ARM": "Placebo",
      "TRT01P": "Placebo",
      "TRT01PN": 5.397605346934028e-79,
      "TRT01A": "Placebo",
      "TRT01AN": 5.397605346934028e-79,
      "TRTSDT": 19775.0,
      "TRTEDT": 19912.0,
      "TRTDURD": 138.0,
      "AVGDD": 5.397605346934028e-79,
      "CUMDOSE": 5.397605346934028e-79,
      "AGE": 80.0,
      "AGEGR1": "65-80",
      "AGEGR1N": 2.0,
      "AGEU": "YEARS",
      "RACE": "WHITE",
      "RACEN": 1.0,
      "SEX": "M",
      "ETHNIC": "NOT HISPANIC OR LATINO",
      "SAFFL": "Y",
      "ITTFL": "Y",
      "EFFFL": "Y",
      "COMP8FL": "Y",
      "COMP16FL": "Y",
      "COMP24FL": "N",
      "DISCONFL": "Y",
      "DSRAEFL": "",
      "DTHFL": "",
      "BMIBL": 25.6,
      "BMIBLGR1": "25-<30",
      "HEIGHTBL": 177.8,
      "WEIGHTBL": 81.0,
      "EDUCLVL": 14.0,
      "DISONSDT": 16803.0,
      "DURDIS": 97.2,
      "DURDSGR1": ">=12",
      "VISIT1DT": 19762.0,
      "RFSTDTC": "2014-02-21",
      "RFENDTC": "2014-07-09",
      "VISNUMEN": 11.0,
      "RFENDT": 19913.0,
      "DCDECOD": "WITHDRAWAL BY SUBJECT",
      "EOSSTT": "DISCONTINUED",
      "DCSREAS": "Withdrew Consent",
      "MMSETOT": 17.0
    },
    {
      "STUDYID": "CDISCPILOT01",
      "USUBJID": "01-704-1017",
      "SUBJID": "1017",
      "SITEID": "704",
      "SITEGR1": "704",
      "ARM": "Xanomeline High Dose",
      "TRT01P": "Xanomeline High Dose",
      "TRT01PN": 81.0,
      "TRT01A": "Xanomeline High Dose",
      "TRT01AN": 81.0,
      "TRTSDT": 19637.0,
      "TRTEDT": 19680.0,
      "TRTDURD": 44.0,
      "AVGDD": 72.4,
      "CUMDOSE": 3186.0,
      "AGE": 77.0,
      "AGEGR1": "65-80",
      "AGEGR1N": 2.0,
      "AGEU": "YEARS",
      "RACE": "WHITE",
      "RACEN": 1.0,
      "SEX": "M",
      "ETHNIC": "NOT HISPANIC OR LATINO",
      "SAFFL": "Y",
      "ITTFL": "Y",
      "EFFFL": "Y",
      "COMP8FL": "N",
      "COMP16FL": "N",
      "COMP24FL": "N",
      "DISCONFL": "Y",
      "DSRAEFL": "Y",
      "DTHFL": "",
      "BMIBL": 21.8,
      "BMIBLGR1": "<25",
      "HEIGHTBL": 170.2,
      "WEIGHTBL": 63.1,
      "EDUCLVL": 12.0,
      "DISONSDT": 18713.0,
      "DURDIS": 29.9,
      "DURDSGR1": ">=12",
      "VISIT1DT": 19621.0,
      "RFSTDTC": "2013-10-06",
      "RFENDTC": "2013-11-24",
      "VISNUMEN": 7.0,
      "RFENDT": 19686.0,
      "DCDECOD": "ADVERSE EVENT",
      "EOSSTT": "DISCONTINUED",
      "DCSREAS": "Adverse Event",
      "MMSETOT": 21.0
    },
    {
      "STUDYID": "CDISCPILOT01",
      "USUBJID": "01-704-1025",
      "SUBJID": "1025",
      "SITEID": "704",
      "SITEGR1": "704",
      "ARM": "Xanomeline Low Dose",
      "TRT01P": "Xanomeline Low Dose",
      "TRT01PN": 54.0,
      "TRT01A": "Xanomeline Low Dose",
      "TRT01AN": 54.0,
      "TRTSDT": 19628.0,
      "TRTEDT": 19655.0,
      "TRTDURD": 28.0,
      "AVGDD": 54.0,
      "CUMDOSE": 1512.0,
      "AGE": 81.0,
      "AGEGR1": ">80",
      "AGEGR1N": 3.0,
      "AGEU": "YEARS",
      "RACE": "WHITE",
      "RACEN": 1.0,
      "SEX": "F",
      "ETHNIC": "NOT HISPANIC OR LATINO",
      "SAFFL": "Y",
      "ITTFL": "Y",
      "EFFFL": "Y",
      "COMP8FL": "N",
      "COMP16FL": "N",
      "COMP24FL": "N",
      "DISCONFL": "Y",
      "DSRAEFL": "Y",
      "DTHFL": "",
      "BMIBL": 20.1,
      "BMIBLGR1": "<25",
      "HEIGHTBL": 166.0,
      "WEIGHTBL": 55.5,
      "EDUCLVL": 18.0,
      "DISONSDT": 19055.0,
      "DURDIS": 18.6,
      "DURDSGR1": ">=12",
      "VISIT1DT": 19619.0,
      "RFSTDTC": "2013-09-27",
      "RFENDTC": "2013-11-29",
      "VISNUMEN": 6.0,
      "RFENDT": 19691.0,
      "DCDECOD": "ADVERSE EVENT",
      "EOSSTT": "DISCONTINUED",
      "DCSREAS": "Adverse Event",
      "MMSETOT": 17.0
    },
    {
      "STUDYID": "CDISCPILOT01",
      "USUBJID": "01-704-1065",
      "SUBJID": "1065",
      "SITEID": "704",
      "SITEGR1": "704",
      "ARM": "Xanomeline High Dose",
      "TRT01P": "Xanomeline High Dose",
      "TRT01PN": 81.0,
      "TRT01A": "Xanomeline High Dose",
      "TRT01AN": 81.0,
      "TRTSDT": 19655.0,
      "TRTEDT": 19714.0,
      "TRTDURD": 60.0,
      "AVGDD": 74.3,
      "CUMDOSE": 4455.0,
      "AGE": 75.0,
      "AGEGR1": "65-80",
      "AGEGR1N": 2.0,
      "AGEU": "YEARS",
      "RACE": "WHITE",
      "RACEN": 1.0,
      "SEX": "M",
      "ETHNIC": "NOT HISPANIC OR LATINO",
      "SAFFL": "Y",
      "ITTFL": "Y",
      "EFFFL": "Y",
      "COMP8FL": "Y",
      "COMP16FL": "N",
      "COMP24FL": "N",
      "DISCONFL": "Y",
      "DSRAEFL": "Y",
      "DTHFL": "",
      "BMIBL": 24.8,
      "BMIBLGR1": "<25",
      "HEIGHTBL": 180.3,
      "WEIGHTBL": 80.7,
      "EDUCLVL": 12.0,
      "DISONSDT": 18344.0,
      "DURDIS": 42.9,
      "DURDSGR1": ">=12",
      "VISIT1DT": 19648.0,
      "RFSTDTC": "2013-10-24",
      "RFENDTC": "2013-12-24",
      "VISNUMEN": 9.0,
      "RFENDT": 19716.0,
      "DCDECOD": "ADVERSE EVENT",
      "EOSSTT": "DISCONTINUED",
      "DCSREAS": "Adverse Event",
      "MMSETOT": 20.0
    },
    {
      "STUDYID": "CDISCPILOT01",
      "USUBJID": "01-704-1074",
      "SUBJID": "1074",
      "SITEID": "704",
      "SITEGR1": "704",
      "ARM": "Xanomeline High Dose",
      "TRT01P": "Xanomeline High Dose",
      "TRT01PN": 81.0,
      "TRT01A": "Xanomeline High Dose",
      "TRT01AN": 81.0,
      "TRTSDT": 19745.0,
      "TRTEDT": 19802.0,
      "TRTDURD": 58.0,
      "AVGDD": 72.2,
      "CUMDOSE": 4185.0,
      "AGE": 80.0,
      "AGEGR1": "65-80",
      "AGEGR1N": 2.0,
      "AGEU": "YEARS",
      "RACE": "WHITE",
      "RACEN": 1.0,
      "SEX": "F",
      "ETHNIC": "NOT HISPANIC OR LATINO",
      "SAFFL": "Y",
      "ITTFL": "Y",
      "EFFFL": "Y",
      "COMP8FL": "Y",
      "COMP16FL": "N",
      "COMP24FL": "N",
      "DISCONFL": "Y",
      "DSRAEFL": "Y",
      "DTHFL": "",
      "BMIBL": 27.0,
      "BMIBLGR1": "25-<30",
      "HEIGHTBL": 167.6,
      "WEIGHTBL": 75.8,
      "EDUCLVL": 16.0,
      "DISONSDT": 17927.0,
      "DURDIS": 59.7,
      "DURDSGR1": ">=12",
      "VISIT1DT": 19742.0,
      "RFSTDTC": "2014-01-22",
      "RFENDTC": "2014-03-31",
      "VISNUMEN": 8.0,
      "RFENDT": 19813.0,
      "DCDECOD": "ADVERSE EVENT",
      "EOSSTT": "DISCONTINUED",
      "DCSREAS": "Adverse Event",
      "MMSETOT": 17.0
    },
    {
      "STUDYID": "CDISCPILOT01",
      "USUBJID": "01-704-1093",
      "SUBJID": "1093",
      "SITEID": "704",
      "SITEGR1": "704",
      "ARM": "Xanomeline High Dose",
      "TRT01P": "Xanomeline High Dose",
      "TRT01PN": 81.0,
      "TRT01A": "Xanomeline High Dose",
      "TRT01AN": 81.0,
      "TRTSDT": 19432.0,
      "TRTEDT": 19526.0,
      "TRTDURD": 95.0,
      "AVGDD": 76.5,
      "CUMDOSE": 7263.0,
      "AGE": 79.0,
      "AGEGR1": "65-80",
      "AGEGR1N": 2.0,
      "AGEU": "YEARS",
      "RACE": "WHITE",
      "RACEN": 1.0,
      "SEX": "M",
      "ETHNIC": "NOT HISPANIC OR LATINO",
      "SAFFL": "Y",
      "ITTFL": "Y",
      "EFFFL": "Y",
      "COMP8FL": "Y",
      "COMP16FL": "Y",
      "COMP24FL": "N",
      "DISCONFL": "Y",
      "DSRAEFL": "Y",
      "DTHFL": "",
      "BMIBL": 24.3,
      "BMIBLGR1": "<25",
      "HEIGHTBL": 174.0,
      "WEIGHTBL": 73.5,
      "EDUCLVL": 12.0,
      "DISONSDT": 18460.0,
      "DURDIS": 31.3,
      "DURDSGR1": ">=12",
      "VISIT1DT": 19411.0,
      "RFSTDTC": "2013-03-15",
      "RFENDTC": "2013-06-20",
      "VISNUMEN": 10.0,
      "RFENDT": 19529.0,
      "DCDECOD": "ADVERSE EVENT",
      "EOSSTT": "DISCONTINUED",
      "DCSREAS": "Adverse Event",
      "MMSETOT": 18.0
    },
    {
      "STUDYID": "CDISCPILOT01",
      "USUBJID": "01-704-1114",
      "SUBJID": "1114",
      "SITEID": "704",
      "SITEGR1": "704",
      "ARM": "Xanomeline Low Dose",
      "TRT01P": "Xanomeline Low Dose",
      "TRT01PN": 54.0,
      "TRT01A": "Xanomeline Low Dose",
      "TRT01AN": 54.0,
      "TRTSDT": 19381.0,
      "TRTEDT": 19546.0,
      "TRTDURD": 166.0,
      "AVGDD": 54.0,
      "CUMDOSE": 8964.0,
      "AGE": 77.0,
      "AGEGR1": "65-80",
      "AGEGR1N": 2.0,
      "AGEU": "YEARS",
      "RACE": "WHITE",
      "RACEN": 1.0,
      "SEX": "M",
      "ETHNIC": "NOT HISPANIC OR LATINO",
      "SAFFL": "Y",
      "ITTFL": "Y",
      "EFFFL": "Y",
      "COMP8FL": "Y",
      "COMP16FL": "Y",
      "COMP24FL": "Y",
      "DISCONFL": "Y",
      "DSRAEFL": "",
      "DTHFL": "",
      "BMIBL": 28.1,
      "BMIBLGR1": "25-<30",
      "HEIGHTBL": 166.4,
      "WEIGHTBL": 77.8,
      "EDUCLVL": 8.0,
      "DISONSDT": 17250.0,
      "DURDIS": 69.6,
      "DURDSGR1": ">=12",
      "VISIT1DT": 19367.0,
      "RFSTDTC": "2013-01-23",
      "RFENDTC": "2013-07-08",
      "VISNUMEN": 12.0,
      "RFENDT": 19547.0,
      "DCDECOD": "WITHDRAWAL BY SUBJECT",
      "EOSSTT": "DISCONTINUED",
      "DCSREAS": "Withdrew Consent",
      "MMSETOT": 20.0
    },
    {
      "STUDYID": "CDISCPILOT01",
      "USUBJID": "01-704-1120",
      "SUBJID": "1120",
      "SITEID": "704",
      "SITEGR1": "704",
      "ARM": "Xanomeline Low Dose",
      "TRT01P": "Xanomeline Low Dose",
      "TRT01PN": 54.0,
      "TRT01A": "Xanomeline Low Dose",
      "TRT01AN": 54.0,
      "TRTSDT": 19694.0,
      "TRTEDT": 19755.0,
      "TRTDURD": 62.0,
      "AVGDD": 54.0,
      "CUMDOSE": 3348.0,
      "AGE": 71.0,
      "AGEGR1": "65-80",
      "AGEGR1N": 2.0,
      "AGEU": "YEARS",
      "RACE": "WHITE",
      "RACEN": 1.0,
      "SEX": "F",
      "ETHNIC": "NOT HISPANIC OR LATINO",
      "SAFFL": "Y",
      "ITTFL": "Y",
      "EFFFL": "Y",
      "COMP8FL": "Y",
      "COMP16FL": "N",
      "COMP24FL": "N",
      "DISCONFL": "Y",
      "DSRAEFL": "Y",
      "DTHFL": "",
      "BMIBL": 23.9,
      "BMIBLGR1": "<25",
      "HEIGHTBL": 147.0,
      "WEIGHTBL": 51.7,
      "EDUCLVL": 13.0,
      "DISONSDT": 17248.0,
      "DURDIS": 79.9,
      "DURDSGR1": ">=12",
      "VISIT1DT": 19680.0,
      "RFSTDTC": "2013-12-02",
      "RFENDTC": "2014-02-03",
      "VISNUMEN": 9.0,
      "RFENDT": 19757.0,
      "DCDECOD": "ADVERSE EVENT",
      "EOSSTT": "DISCONTINUED",
      "DCSREAS": "Adverse Event",
      "MMSETOT": 16.0
    },
    {
      "STUDYID": "CDISCPILOT01",
      "USUBJID": "01-704-1127",
      "SUBJID": "1127",
      "SITEID": "704",
      "SITEGR1": "704",
      "ARM": "Placebo",
      "TRT01P": "Placebo",
      "TRT01PN": 5.397605346934028e-79,
      "TRT01A": "Placebo",
      "TRT01AN": 5.397605346934028e-79,
      "TRTSDT": 19633.0,
      "TRTEDT": 19813.0,
      "TRTDURD": 181.0,
      "AVGDD": 5.397605346934028e-79,
      "CUMDOSE": 5.397605346934028e-79,
      "AGE": 84.0,
      "AGEGR1": ">80",
      "AGEGR1N": 3.0,
      "AGEU": "YEARS",
      "RACE": "WHITE",
      "RACEN": 1.0,
      "SEX": "F",
      "ETHNIC": "NOT HISPANIC OR LATINO",
      "SAFFL": "Y",
      "ITTFL": "Y",
      "EFFFL": "Y",
      "COMP8FL": "Y",
      "COMP16FL": "Y",
      "COMP24FL": "Y",
      "DISCONFL": "",
      "DSRAEFL": "",
      "DTHFL": "",
      "BMIBL": 15.1,
      "BMIBLGR1": "<25",
      "HEIGHTBL": 165.1,
      "WEIGHTBL": 41.1,
      "EDUCLVL": 12.0,
      "DISONSDT": 17786.0,
      "DURDIS": 60.2,
      "DURDSGR1": ">=12",
      "VISIT1DT": 19617.0,
      "RFSTDTC": "2013-10-02",
      "RFENDTC": "2014-03-31",
      "VISNUMEN": 12.0,
      "RFENDT": 19813.0,
      "DCDECOD": "COMPLETED",
      "EOSSTT": "COMPLETED",
      "DCSREAS": "",
      "MMSETOT": 22.0
    },
    {
      "STUDYID": "CDISCPILOT01",
      "USUBJID": "01-704-1135",
      "SUBJID": "1135",
      "SITEID": "704",
      "SITEGR1": "704",
      "ARM": "Xanomeline Low Dose",
      "TRT01P": "Xanomeline Low Dose",
      "TRT01PN": 54.0,
      "TRT01A": "Xanomeline Low Dose",
      "TRT01AN": 54.0,
      "TRTSDT": 19662.0,
      "TRTEDT": 19859.0,
      "TRTDURD": 198.0,
      "AVGDD": 54.0,
      "CUMDOSE": 10692.0,
      "AGE": 74.0,
      "AGEGR1": "65-80",
      "AGEGR1N": 2.0,
      "AGEU": "YEARS",
      "RACE": "WHITE",
      "RACEN": 1.0,
      "SEX": "F",
      "ETHNIC": "NOT HISPANIC OR LATINO",
      "SAFFL": "Y",
      "ITTFL": "Y",
      "EFFFL": "Y",
      "COMP8FL": "Y",
      "COMP16FL": "Y",
      "COMP24FL": "Y",
      "DISCONFL": "",
      "DSRAEFL": "",
      "DTHFL": "",
      "BMIBL": 24.6,
      "BMIBLGR1": "<25",
      "HEIGHTBL": 161.8,
      "WEIGHTBL": 64.4,
      "EDUCLVL": 14.0,
      "DISONSDT": 18541.0,
      "DURDIS": 36.6,
      "DURDSGR1": ">=12",
      "VISIT1DT": 19654.0,
      "RFSTDTC": "2013-10-31",
      "RFENDTC": "2014-05-16",
      "VISNUMEN": 12.0,
      "RFENDT": 19859.0,
      "DCDECOD": "COMPLETED",
      "EOSSTT": "COMPLETED",
      "DCSREAS": "",
      "MMSETOT": 23.0
    },
    {
      "STUDYID": "CDISCPILOT01",
      "USUBJID": "01-704-1164",
      "SUBJID": "1164",
      "SITEID": "704",
      "SITEGR1": "704",
      "ARM": "Placebo",
      "TRT01P": "Placebo",
      "TRT01PN": 5.397605346934028e-79,
      "TRT01A": "Placebo",
      "TRT01AN": 5.397605346934028e-79,
      "TRTSDT": 19255.0,
      "TRTEDT": 19452.0,
      "TRTDURD": 198.0,
      "AVGDD": 5.397605346934028e-79,
      "CUMDOSE": 5.397605346934028e-79,
      "AGE": 67.0,
      "AGEGR1": "65-80",
      "AGEGR1N": 2.0,
      "AGEU": "YEARS",
      "RACE": "WHITE",
      "RACEN": 1.0,
      "SEX": "F",
      "ETHNIC": "NOT HISPANIC OR LATINO",
      "SAFFL": "Y",
      "ITTFL": "Y",
      "EFFFL": "Y",
      "COMP8FL": "Y",
      "COMP16FL": "Y",
      "COMP24FL": "Y",
      "DISCONFL": "",
      "DSRAEFL": "",
      "DTHFL": "",
      "BMIBL": 20.1,
      "BMIBLGR1": "<25",
      "HEIGHTBL": 157.5,
      "WEIGHTBL": 49.9,
      "EDUCLVL": 10.0,
      "DISONSDT": 18690.0,
      "DURDIS": 18.3,
      "DURDSGR1": ">=12",
      "VISIT1DT": 19247.0,
      "RFSTDTC": "2012-09-19",
      "RFENDTC": "2013-04-04",
      "VISNUMEN": 12.0,
      "RFENDT": 19452.0,
      "DCDECOD": "COMPLETED",
      "EOSSTT": "COMPLETED",
      "DCSREAS": "",
      "MMSETOT": 16.0
    },
    {
      "STUDYID": "CDISCPILOT01",
      "USUBJID": "01-704-1218",
      "SUBJID": "1218",
      "SITEID": "704",
      "SITEGR1": "704",
      "ARM": "Xanomeline Low Dose",
      "TRT01P": "Xanomeline Low Dose",
      "TRT01PN": 54.0,
      "TRT01A": "Xanomeline Low Dose",
      "TRT01AN": 54.0,
      "TRTSDT": 19316.0,
      "TRTEDT": 19505.0,
      "TRTDURD": 190.0,
      "AVGDD": 54.0,
      "CUMDOSE": 10260.0,
      "AGE": 81.0,
      "AGEGR1": ">80",
      "AGEGR1N": 3.0,
      "AGEU": "YEARS",
      "RACE": "WHITE",
      "RACEN": 1.0,
      "SEX": "F",
      "ETHNIC": "NOT HISPANIC OR LATINO",
      "SAFFL": "Y",
      "ITTFL": "Y",
      "EFFFL": "Y",
      "COMP8FL": "Y",
      "COMP16FL": "Y",
      "COMP24FL": "Y",
      "DISCONFL": "",
      "DSRAEFL": "",
      "DTHFL": "",
      "BMIBL": 26.2,
      "BMIBLGR1": "25-<30",
      "HEIGHTBL": 144.0,
      "WEIGHTBL": 54.4,
      "EDUCLVL": 12.0,
      "DISONSDT": 18489.0,
      "DURDIS": 26.9,
      "DURDSGR1": ">=12",
      "VISIT1DT": 19308.0,
      "RFSTDTC": "2012-11-19",
      "RFENDTC": "2013-05-27",
      "VISNUMEN": 12.0,
      "RFENDT": 19505.0,
      "DCDECOD": "COMPLETED",
      "EOSSTT": "COMPLETED",
      "DCSREAS": "",
      "MMSETOT": 22.0
    },
    {
      "STUDYID": "CDISCPILOT01",
      "USUBJID": "01-704-1233",
      "SUBJID": "1233",
      "SITEID": "704",
      "SITEGR1": "704",
      "ARM": "Placebo",
      "TRT01P": "Placebo",
      "TRT01PN": 5.397605346934028e-79,
      "TRT01A": "Placebo",
      "TRT01AN": 5.397605346934028e-79,
      "TRTSDT": 19438.0,
      "TRTEDT": 19553.0,
      "TRTDURD": 116.0,
      "AVGDD": 5.397605346934028e-79,
      "CUMDOSE": 5.397605346934028e-79,
      "AGE": 87.0,
      "AGEGR1": ">80",
      "AGEGR1N": 3.0,
      "AGEU": "YEARS",
      "RACE": "WHITE",
      "RACEN": 1.0,
      "SEX": "F",
      "ETHNIC": "NOT HISPANIC OR LATINO",
      "SAFFL": "Y",
      "ITTFL": "Y",
      "EFFFL": "Y",
      "COMP8FL": "Y",
      "COMP16FL": "Y",
      "COMP24FL": "N",
      "DISCONFL": "Y",
      "DSRAEFL": "",
      "DTHFL": "",
      "BMIBL": 21.3,
      "BMIBLGR1": "<25",
      "HEIGHTBL": 147.3,
      "WEIGHTBL": 46.3,
      "EDUCLVL": 16.0,
      "DISONSDT": 18642.0,
      "DURDIS": 25.8,
      "DURDSGR1": ">=12",
      "VISIT1DT": 19425.0,
      "RFSTDTC": "2013-03-21",
      "RFENDTC": "2013-07-14",
      "VISNUMEN": 11.0,
      "RFENDT": 19553.0,
      "DCDECOD": "WITHDRAWAL BY SUBJECT",
      "EOSSTT": "DISCONTINUED",
      "DCSREAS": "Withdrew Consent",
      "MMSETOT": 15.0
    },
    {
      "STUDYID": "CDISCPILOT01",
      "USUBJID": "01-704-1241",
      "SUBJID": "1241",
      "SITEID": "704",
      "SITEGR1": "704",
      "ARM": "Xanomeline High Dose",
      "TRT01P": "Xanomeline High Dose",
      "TRT01PN": 81.0,
      "TRT01A": "Xanomeline High Dose",
      "TRT01AN": 81.0,
      "TRTSDT": 19595.0,
      "TRTEDT": 19640.0,
      "TRTDURD": 46.0,
      "AVGDD": 74.0,
      "CUMDOSE": 3402.0,
      "AGE": 86.0,
      "AGEGR1": ">80",
      "AGEGR1N": 3.0,
      "AGEU": "YEARS",
      "RACE": "WHITE",
      "RACEN": 1.0,
      "SEX": "M",
      "ETHNIC": "NOT HISPANIC OR LATINO",
      "SAFFL": "Y",
      "ITTFL": "Y",
      "EFFFL": "Y",
      "COMP8FL": "Y",
      "COMP16FL": "N",
      "COMP24FL": "N",
      "DISCONFL": "Y",
      "DSRAEFL": "Y",
      "DTHFL": "",
      "BMIBL": 25.2,
      "BMIBLGR1": "25-<30",
      "HEIGHTBL": 170.2,
      "WEIGHTBL": 73.0,
      "EDUCLVL": 14.0,
      "DISONSDT": 18833.0,
      "DURDIS": 24.7,
      "DURDSGR1": ">=12",
      "VISIT1DT": 19584.0,
      "RFSTDTC": "2013-08-25",
      "RFENDTC": "2013-10-31",
      "VISNUMEN": 8.0,
      "RFENDT": 19662.0,
      "DCDECOD": "ADVERSE EVENT",
      "EOSSTT": "DISCONTINUED",
      "DCSREAS": "Adverse Event",
      "MMSETOT": 21.0
    },
    {
      "STUDYID": "CDISCPILOT01",
      "USUBJID": "01-704-1260",
      "SUBJID": "1260",
      "SITEID": "704",
      "SITEGR1": "704",
      "ARM": "Placebo",
      "TRT01P": "Placebo",
      "TRT01PN": 5.397605346934028e-79,
      "TRT01A": "Placebo",
      "TRT01AN": 5.397605346934028e-79,
      "TRTSDT": 19235.0,
      "TRTEDT": 19301.0,
      "TRTDURD": 67.0,
      "AVGDD": 5.397605346934028e-79,
      "CUMDOSE": 5.397605346934028e-79,
      "AGE": 71.0,
      "AGEGR1": "65-80",
      "AGEGR1N": 2.0,
      "AGEU": "YEARS",
      "RACE": "WHITE",
      "RACEN": 1.0,
      "SEX": "F",
      "ETHNIC": "NOT HISPANIC OR LATINO",
      "SAFFL": "Y",
      "ITTFL": "Y",
      "EFFFL": "Y",
      "COMP8FL": "Y",
      "COMP16FL": "N",
      "COMP24FL": "N",
      "DISCONFL": "Y",
      "DSRAEFL": "",
      "DTHFL": "",
      "BMIBL": 19.1,
      "BMIBLGR1": "<25",
      "HEIGHTBL": 160.0,
      "WEIGHTBL": 48.8,
      "EDUCLVL": 16.0,
      "DISONSDT": 15673.0,
      "DURDIS": 116.8,
      "DURDSGR1": ">=12",
      "VISIT1DT": 19228.0,
      "RFSTDTC": "2012-08-30",
      "RFENDTC": "2013-01-18",
      "VISNUMEN": 9.0,
      "RFENDT": 19376.0,
      "DCDECOD": "WITHDRAWAL BY SUBJECT",
      "EOSSTT": "DISCONTINUED",
      "DCSREAS": "Withdrew Consent",
      "MMSETOT": 16.0
    },
    {
      "STUDYID": "CDISCPILOT01",
      "USUBJID": "01-704-1266",
      "SUBJID": "1266",
      "SITEID": "704",
      "SITEGR1": "704",
      "ARM": "Xanomeline High Dose",
      "TRT01P": "Xanomeline High Dose",
      "TRT01PN": 81.0,
      "TRT01A": "Xanomeline High Dose",
      "TRT01AN": 81.0,
      "TRTSDT": 19644.0,
      "TRTEDT": 19698.0,
      "TRTDURD": 55.0,
      "AVGDD": 73.6,
      "CUMDOSE": 4050.0,
      "AGE": 82.0,
      "AGEGR1": ">80",
      "AGEGR1N": 3.0,
      "AGEU": "YEARS",
      "RACE": "WHITE",
      "RACEN": 1.0,
      "SEX": "M",
      "ETHNIC": "NOT HISPANIC OR LATINO",
      "SAFFL": "Y",
      "ITTFL": "Y",
      "EFFFL": "Y",
      "COMP8FL": "Y",
      "COMP16FL": "N",
      "COMP24FL": "N",
      "DISCONFL": "Y",
      "DSRAEFL": "Y",
      "DTHFL": "",
      "BMIBL": 29.2,
      "BMIBLGR1": "25-<30",
      "HEIGHTBL": 174.0,
      "WEIGHTBL": 88.5,
      "EDUCLVL": 12.0,
      "DISONSDT": 18963.0,
      "DURDIS": 22.1,
      "DURDSGR1": ">=12",
      "VISIT1DT": 19636.0,
      "RFSTDTC": "2013-10-13",
      "RFENDTC": "2013-12-06",
      "VISNUMEN": 8.0,
      "RFENDT": 19698.0,
      "DCDECOD": "ADVERSE EVENT",
      "EOSSTT": "DISCONTINUED",
      "DCSREAS": "Adverse Event",
      "MMSETOT": 16.0
    },
    {
      "STUDYID": "CDISCPILOT01",
      "USUBJID": "01-704-1323",
      "SUBJID": "1323",
      "SITEID": "704",
      "SITEGR1": "704",
      "ARM": "Xanomeline Low Dose",
      "TRT01P": "Xanomeline Low Dose",
      "TRT01PN": 54.0,
      "TRT01A": "Xanomeline Low Dose",
      "TRT01AN": 54.0,
      "TRTSDT": 19547.0,
      "TRTEDT": 19575.0,
      "TRTDURD": 29.0,
      "AVGDD": 54.0,
      "CUMDOSE": 1566.0,
      "AGE": 68.0,
      "AGEGR1": "65-80",
      "AGEGR1N": 2.0,
      "AGEU": "YEARS",
      "RACE": "WHITE",
      "RACEN": 1.0,
      "SEX": "F",
      "ETHNIC": "NOT HISPANIC OR LATINO",
      "SAFFL": "Y",
      "ITTFL": "Y",
      "EFFFL": "N",
      "COMP8FL": "N",
      "COMP16FL": "N",
      "COMP24FL": "N",
      "DISCONFL": "Y",
      "DSRAEFL": "Y",
      "DTHFL": "",
      "BMIBL": 22.7,
      "BMIBLGR1": "<25",
      "HEIGHTBL": 162.6,
      "WEIGHTBL": 59.9,
      "EDUCLVL": 16.0,
      "DISONSDT": 18344.0,
      "DURDIS": 38.7,
      "DURDSGR1": ">=12",
      "VISIT1DT": 19522.0,
      "RFSTDTC": "2013-07-08",
      "RFENDTC": "2013-08-08",
      "VISNUMEN": 7.0,
      "RFENDT": 19578.0,
      "DCDECOD": "ADVERSE EVENT",
      "EOSSTT": "DISCONTINUED",
      "DCSREAS": "Adverse Event",
      "MMSETOT": 23.0
    },
    {
      "STUDYID": "CDISCPILOT01",
      "USUBJID": "01-704-1325",
      "SUBJID": "1325",
      "SITEID": "704",
      "SITEGR1": "704",
      "ARM": "Xanomeline Low Dose",
      "TRT01P": "Xanomeline Low Dose",
      "TRT01PN": 54.0,
      "TRT01A": "Xanomeline Low Dose",
      "TRT01AN": 54.0,
      "TRTSDT": 19836.0,
      "TRTEDT": 19908.0,
      "TRTDURD": 73.0,
      "AVGDD": 54.0,
      "CUMDOSE": 3942.0,
      "AGE": 81.0,
      "AGEGR1": ">80",
      "AGEGR1N": 3.0,
      "AGEU": "YEARS",
      "RACE": "WHITE",
      "RACEN": 1.0,
      "SEX": "M",
      "ETHNIC": "NOT HISPANIC OR LATINO",
      "SAFFL": "Y",
      "ITTFL": "Y",
      "EFFFL": "Y",
      "COMP8FL": "Y",
      "COMP16FL": "Y",
      "COMP24FL": "N",
      "DISCONFL": "Y",
      "DSRAEFL": "",
      "DTHFL": "",
      "BMIBL": 22.3,
      "BMIBLGR1": "<25",
      "HEIGHTBL": 175.3,
      "WEIGHTBL": 68.5,
      "EDUCLVL": 16.0,
      "DISONSDT": 17838.0,
      "DURDIS": 65.4,
      "DURDSGR1": ">=12",
      "VISIT1DT": 19829.0,
      "RFSTDTC": "2014-04-23",
      "RFENDTC": "2014-08-06",
      "VISNUMEN": 10.0,
      "RFENDT": 19941.0,
      "DCDECOD": "PROTOCOL VIOLATION",
      "EOSSTT": "DISCONTINUED",
      "DCSREAS": "Protocol Violation",
      "MMSETOT": 18.0
    },
    {
      "STUDYID": "CDISCPILOT01",
      "USUBJID": "01-704-1332",
      "SUBJID": "1332",
      "SITEID": "704",
      "SITEGR1": "704",
      "ARM": "Xanomeline High Dose",
      "TRT01P": "Xanomeline High Dose",
      "TRT01PN": 81.0,
      "TRT01A": "Xanomeline High Dose",
      "TRT01AN": 81.0,
      "TRTSDT": 19701.0,
      "TRTEDT": 19768.0,
      "TRTDURD": 68.0,
      "AVGDD": 75.0,
      "CUMDOSE": 5103.0,
      "AGE": 80.0,
      "AGEGR1": "65-80",
      "AGEGR1N": 2.0,
      "AGEU": "YEARS",
      "RACE": "WHITE",
      "RACEN": 1.0,
      "SEX": "M",
      "ETHNIC": "NOT HISPANIC OR LATINO",
      "SAFFL": "Y",
      "ITTFL": "Y",
      "EFFFL": "Y",
      "COMP8FL": "Y",
      "COMP16FL": "N",
      "COMP24FL": "N",
      "DISCONFL": "Y",
      "DSRAEFL": "Y",
      "DTHFL": "",
      "BMIBL": 26.2,
      "BMIBLGR1": "25-<30",
      "HEIGHTBL": 173.0,
      "WEIGHTBL": 78.5,
      "EDUCLVL": 9.0,
      "DISONSDT": 18940.0,
      "DURDIS": 24.5,
      "DURDSGR1": ">=12",
      "VISIT1DT": 19686.0,
      "RFSTDTC": "2013-12-09",
      "RFENDTC": "2014-02-16",
      "VISNUMEN": 9.0,
      "RFENDT": 19770.0,
      "DCDECOD": "ADVERSE EVENT",
      "EOSSTT": "DISCONTINUED",
      "DCSREAS": "Adverse Event",
      "MMSETOT": 22.0
    },
    {
      "STUDYID": "CDISCPILOT01",
      "USUBJID": "01-704-1351",
      "SUBJID": "1351",
      "SITEID": "704",
      "SITEGR1": "704",
      "ARM": "Placebo",
      "TRT01P": "Placebo",
      "TRT01PN": 5.397605346934028e-79,
      "TRT01A": "Placebo",
      "TRT01AN": 5.397605346934028e-79,
      "TRTSDT": 19643.0,
      "TRTEDT": 19831.0,
      "TRTDURD": 189.0,
      "AVGDD": 5.397605346934028e-79,
      "CUMDOSE": 5.397605346934028e-79,
      "AGE": 70.0,
      "AGEGR1": "65-80",
      "AGEGR1N": 2.0,
      "AGEU": "YEARS",
      "RACE": "WHITE",
      "RACEN": 1.0,
      "SEX": "M",
      "ETHNIC": "NOT HISPANIC OR LATINO",
      "SAFFL": "Y",
      "ITTFL": "Y",
      "EFFFL": "Y",
      "COMP8FL": "Y",
      "COMP16FL": "Y",
      "COMP24FL": "Y",
      "DISCONFL": "",
      "DSRAEFL": "",
      "DTHFL": "",
      "BMIBL": 23.9,
      "BMIBLGR1": "<25",
      "HEIGHTBL": 175.3,
      "WEIGHTBL": 73.5,
      "EDUCLVL": 12.0,
      "DISONSDT": 19246.0,
      "DURDIS": 12.6,
      "DURDSGR1": ">=12",
      "VISIT1DT": 19627.0,
      "RFSTDTC": "2013-10-12",
      "RFENDTC": "2014-04-18",
      "VISNUMEN": 12.0,
      "RFENDT": 19831.0,
      "DCDECOD": "COMPLETED",
      "EOSSTT": "COMPLETED",
      "DCSREAS": "",
      "MMSETOT": 22.0
    },
    {
      "STUDYID": "CDISCPILOT01",
      "USUBJID": "01-704-1388",
      "SUBJID": "1388",
      "SITEID": "704",
      "SITEGR1": "704",
      "ARM": "Placebo",
      "TRT01P": "Placebo",
      "TRT01PN": 5.397605346934028e-79,
      "TRT01A": "Placebo",
      "TRT01AN": 5.397605346934028e-79,
      "TRTSDT": 19334.0,
      "TRTEDT": 19520.0,
      "TRTDURD": 187.0,
      "AVGDD": 5.397605346934028e-79,
      "CUMDOSE": 5.397605346934028e-79,
      "AGE": 81.0,
      "AGEGR1": ">80",
      "AGEGR1N": 3.0,
      "AGEU": "YEARS",
      "RACE": "WHITE",
      "RACEN": 1.0,
      "SEX": "M",
      "ETHNIC": "NOT HISPANIC OR LATINO",
      "SAFFL": "Y",
      "ITTFL": "Y",
      "EFFFL": "Y",
      "COMP8FL": "Y",
      "COMP16FL": "Y",
      "COMP24FL": "Y",
      "DISCONFL": "",
      "DSRAEFL": "",
      "DTHFL": "",
      "BMIBL": 18.8,
      "BMIBLGR1": "<25",
      "HEIGHTBL": 176.5,
      "WEIGHTBL": 58.5,
      "EDUCLVL": 11.0,
      "DISONSDT": 18561.0,
      "DURDIS": 25.1,
      "DURDSGR1": ">=12",
      "VISIT1DT": 19325.0,
      "RFSTDTC": "2012-12-07",
      "RFENDTC": "2013-06-19",
      "VISNUMEN": 12.0,
      "RFENDT": 19528.0,
      "DCDECOD": "COMPLETED",
      "EOSSTT": "COMPLETED",
      "DCSREAS": "",
      "MMSETOT": 20.0
    },
    {
      "STUDYID": "CDISCPILOT01",
      "USUBJID": "01-704-1435",
      "SUBJID": "1435",
      "SITEID": "704",
      "SITEGR1": "704",
      "ARM": "Placebo",
      "TRT01P": "Placebo",
      "TRT01PN": 5.397605346934028e-79,
      "TRT01A": "Placebo",
      "TRT01AN": 5.397605346934028e-79,
      "TRTSDT": 19314.0,
      "TRTEDT": 19367.0,
      "TRTDURD": 54.0,
      "AVGDD": 5.397605346934028e-79,
      "CUMDOSE": 5.397605346934028e-79,
      "AGE": 74.0,
      "AGEGR1": "65-80",
      "AGEGR1N": 2.0,
      "AGEU": "YEARS",
      "RACE": "WHITE",
      "RACEN": 1.0,
      "SEX": "M",
      "ETHNIC": "NOT HISPANIC OR LATINO",
      "SAFFL": "Y",
      "ITTFL": "Y",
      "EFFFL": "Y",
      "COMP8FL": "Y",
      "COMP16FL": "N",
      "COMP24FL": "N",
      "DISCONFL": "Y",
      "DSRAEFL": "",
      "DTHFL": "",
      "BMIBL": 27.1,
      "BMIBLGR1": "25-<30",
      "HEIGHTBL": 167.6,
      "WEIGHTBL": 76.2,
      "EDUCLVL": 16.0,
      "DISONSDT": 18282.0,
      "DURDIS": 33.4,
      "DURDSGR1": ">=12",
      "VISIT1DT": 19298.0,
      "RFSTDTC": "2012-11-17",
      "RFENDTC": "2013-01-12",
      "VISNUMEN": 8.0,
      "RFENDT": 19370.0,
      "DCDECOD": "WITHDRAWAL BY SUBJECT",
      "EOSSTT": "DISCONTINUED",
      "DCSREAS": "Withdrew Consent",
      "MMSETOT": 20.0
    },
    {
      "STUDYID": "CDISCPILOT01",
      "USUBJID": "01-704-1445",
      "SUBJID": "1445",
      "SITEID": "704",
      "SITEGR1": "704",
      "ARM": "Placebo",
      "TRT01P": "Placebo",
      "TRT01PN": 5.397605346934028e-79,
      "TRT01A": "Placebo",
      "TRT01AN": 5.397605346934028e-79,
      "TRTSDT": 19854.0,
      "TRTEDT": 20028.0,
      "TRTDURD": 175.0,
      "AVGDD": 5.397605346934028e-79,
      "CUMDOSE": 5.397605346934028e-79,
      "AGE": 75.0,
      "AGEGR1": "65-80",
      "AGEGR1N": 2.0,
      "AGEU": "YEARS",
      "RACE": "WHITE",
      "RACEN": 1.0,
      "SEX": "M",
      "ETHNIC": "NOT HISPANIC OR LATINO",
      "SAFFL": "Y",
      "ITTFL": "Y",
      "EFFFL": "Y",
      "COMP8FL": "Y",
      "COMP16FL": "Y",
      "COMP24FL": "Y",
      "DISCONFL": "Y",
      "DSRAEFL": "",
      "DTHFL": "Y",
      "BMIBL": 22.8,
      "BMIBLGR1": "<25",
      "HEIGHTBL": 177.8,
      "WEIGHTBL": 72.1,
      "EDUCLVL": 12.0,
      "DISONSDT": 19308.0,
      "DURDIS": 17.6,
      "DURDSGR1": ">=12",
      "VISIT1DT": 19844.0,
      "RFSTDTC": "2014-05-11",
      "RFENDTC": "2014-11-01",
      "VISNUMEN": 12.0,
      "RFENDT": 20028.0,
      "DCDECOD": "DEATH",
      "EOSSTT": "DISCONTINUED",
      "DCSREAS": "Death",
      "MMSETOT": 23.0
    },
    {
      "STUDYID": "CDISCPILOT01",
      "USUBJID": "01-705-1018",
      "SUBJID": "1018",
      "SITEID": "705",
      "SITEGR1": "705",
      "ARM": "Placebo",
      "TRT01P": "Placebo",
      "TRT01PN": 5.397605346934028e-79,
      "TRT01A": "Placebo",
      "TRT01AN": 5.397605346934028e-79,
      "TRTSDT": 19544.0,
      "TRTEDT": 19551.0,
      "TRTDURD": 8.0,
      "AVGDD": 5.397605346934028e-79,
      "CUMDOSE": 5.397605346934028e-79,
      "AGE": 69.0,
      "AGEGR1": "65-80",
      "AGEGR1N": 2.0,
      "AGEU": "YEARS",
      "RACE": "WHITE",
      "RACEN": 1.0,
      "SEX": "F",
      "ETHNIC": "NOT HISPANIC OR LATINO",
      "SAFFL": "Y",
      "ITTFL": "Y",
      "EFFFL": "N",
      "COMP8FL": "N",
      "COMP16FL": "N",
      "COMP24FL": "N",
      "DISCONFL": "Y",
      "DSRAEFL": "",
      "DTHFL": "",
      "BMIBL": 22.6,
      "BMIBLGR1": "<25",
      "HEIGHTBL": 147.3,
      "WEIGHTBL": 49.0,
      "EDUCLVL": 6.0,
      "DISONSDT": 18222.0,
      "DURDIS": 43.3,
      "DURDSGR1": ">=12",
      "VISIT1DT": 19539.0,
      "RFSTDTC": "2013-07-05",
      "RFENDTC": "2013-07-12",
      "VISNUMEN": 4.0,
      "RFENDT": 19551.0,
      "DCDECOD": "WITHDRAWAL BY SUBJECT",
      "EOSSTT": "DISCONTINUED",
      "DCSREAS": "Withdrew Consent",
      "MMSETOT": 18.0
    },
    {
      "STUDYID": "CDISCPILOT01",
      "USUBJID": "01-705-1031",
      "SUBJID": "1031",
      "SITEID": "705",
      "SITEGR1": "705",
      "ARM": "Xanomeline Low Dose",
      "TRT01P": "Xanomeline Low Dose",
      "TRT01PN": 54.0,
      "TRT01A": "Xanomeline Low Dose",
      "TRT01AN": 54.0,
      "TRTSDT": 19689.0,
      "TRTEDT": 19854.0,
      "TRTDURD": 166.0,
      "AVGDD": 54.0,
      "CUMDOSE": 8964.0,
      "AGE": 56.0,
      "AGEGR1": "<65",
      "AGEGR1N": 1.0,
      "AGEU": "YEARS",
      "RACE": "WHITE",
      "RACEN": 1.0,
      "SEX": "F",
      "ETHNIC": "HISPANIC OR LATINO",
      "SAFFL": "Y",
      "ITTFL": "Y",
      "EFFFL": "Y",
      "COMP8FL": "Y",
      "COMP16FL": "Y",
      "COMP24FL": "Y",
      "DISCONFL": "Y",
      "DSRAEFL": "",
      "DTHFL": "",
      "BMIBL": 28.9,
      "BMIBLGR1": "25-<30",
      "HEIGHTBL": 157.5,
      "WEIGHTBL": 71.7,
      "EDUCLVL": 16.0,
      "DISONSDT": 18591.0,
      "DURDIS": 35.8,
      "DURDSGR1": ">=12",
      "VISIT1DT": 19679.0,
      "RFSTDTC": "2013-11-27",
      "RFENDTC": "2014-05-11",
      "VISNUMEN": 12.0,
      "RFENDT": 19854.0,
      "DCDECOD": "LOST TO FOLLOW-UP",
      "EOSSTT": "DISCONTINUED",
      "DCSREAS": "Lost to Follow-up",
      "MMSETOT": 23.0
    },
    {
      "STUDYID": "CDISCPILOT01",
      "USUBJID": "01-705-1059",
      "SUBJID": "1059",
      "SITEID": "705",
      "SITEGR1": "705",
      "ARM": "Placebo",
      "TRT01P": "Placebo",
      "TRT01PN": 5.397605346934028e-79,
      "TRT01A": "Placebo",
      "TRT01AN": 5.397605346934028e-79,
      "TRTSDT": 19575.0,
      "TRTEDT": 19697.0,
      "TRTDURD": 123.0,
      "AVGDD": 5.397605346934028e-79,
      "CUMDOSE": 5.397605346934028e-79,
      "AGE": 66.0,
      "AGEGR1": "65-80",
      "AGEGR1N": 2.0,
      "AGEU": "YEARS",
      "RACE": "WHITE",
      "RACEN": 1.0,
      "SEX": "F",
      "ETHNIC": "NOT HISPANIC OR LATINO",
      "SAFFL": "Y",
      "ITTFL": "Y",
      "EFFFL": "Y",
      "COMP8FL": "Y",
      "COMP16FL": "Y",
      "COMP24FL": "N",
      "DISCONFL": "Y",
      "DSRAEFL": "Y",
      "DTHFL": "",
      "BMIBL": 20.4,
      "BMIBLGR1": "<25",
      "HEIGHTBL": 162.6,
      "WEIGHTBL": 54.0,
      "EDUCLVL": 12.0,
      "DISONSDT": 18098.0,
      "DURDIS": 48.5,
      "DURDSGR1": ">=12",
      "VISIT1DT": 19572.0,
      "RFSTDTC": "2013-08-05",
      "RFENDTC": "2013-12-05",
      "VISNUMEN": 10.0,
      "RFENDT": 19697.0,
      "DCDECOD": "ADVERSE EVENT",
      "EOSSTT": "DISCONTINUED",
      "DCSREAS": "Adverse Event",
      "MMSETOT": 16.0
    },
    {
      "STUDYID": "CDISCPILOT01",
      "USUBJID": "01-705-1186",
      "SUBJID": "1186",
      "SITEID": "705",
      "SITEGR1": "705",
      "ARM": "Placebo",
      "TRT01P": "Placebo",
      "TRT01PN": 5.397605346934028e-79,
      "TRT01A": "Placebo",
      "TRT01AN": 5.397605346934028e-79,
      "TRTSDT": 19731.0,
      "TRTEDT": 19749.0,
      "TRTDURD": 19.0,
      "AVGDD": 5.397605346934028e-79,
      "CUMDOSE": 5.397605346934028e-79,
      "AGE": 84.0,
      "AGEGR1": ">80",
      "AGEGR1N": 3.0,
      "AGEU": "YEARS",
      "RACE": "WHITE",
      "RACEN": 1.0,
      "SEX": "F",
      "ETHNIC": "NOT HISPANIC OR LATINO",
      "SAFFL": "Y",
      "ITTFL": "Y",
      "EFFFL": "N",
      "COMP8FL": "N",
      "COMP16FL": "N",
      "COMP24FL": "N",
      "DISCONFL": "Y",
      "DSRAEFL": "",
      "DTHFL": "",
      "BMIBL": 19.7,
      "BMIBLGR1": "<25",
      "HEIGHTBL": 142.2,
      "WEIGHTBL": 39.9,
      "EDUCLVL": 12.0,
      "DISONSDT": 18811.0,
      "DURDIS": 30.1,
      "DURDSGR1": ">=12",
      "VISIT1DT": 19726.0,
      "RFSTDTC": "2014-01-08",
      "RFENDTC": "2014-02-07",
      "VISNUMEN": 5.0,
      "RFENDT": 19761.0,
      "DCDECOD": "PHYSICIAN DECISION",
      "EOSSTT": "DISCONTINUED",
      "DCSREAS": "Physician Decision",
      "MMSETOT": 15.0
    },
    {
      "STUDYID": "CDISCPILOT01",
      "USUBJID": "01-705-1199",
      "SUBJID": "1199",
      "SITEID": "705",
      "SITEGR1": "705",
      "ARM": "Xanomeline Low Dose",
      "TRT01P": "Xanomeline Low Dose",
      "TRT01PN": 54.0,
      "TRT01A": "Xanomeline Low Dose",
      "TRT01AN": 54.0,
      "TRTSDT": 19617.0,
      "TRTEDT": 19629.0,
      "TRTDURD": 13.0,
      "AVGDD": 54.0,
      "CUMDOSE": 702.0,
      "AGE": 87.0,
      "AGEGR1": ">80",
      "AGEGR1N": 3.0,
      "AGEU": "YEARS",
      "RACE": "WHITE",
      "RACEN": 1.0,
      "SEX": "M",
      "ETHNIC": "NOT HISPANIC OR LATINO",
      "SAFFL": "Y",
      "ITTFL": "Y",
      "EFFFL": "Y",
      "COMP8FL": "N",
      "COMP16FL": "N",
      "COMP24FL": "N",
      "DISCONFL": "Y",
      "DSRAEFL": "Y",
      "DTHFL": "",
      "BMIBL": 24.8,
      "BMIBLGR1": "<25",
      "HEIGHTBL": 161.3,
      "WEIGHTBL": 64.4,
      "EDUCLVL": 20.0,
      "DISONSDT": 17417.0,
      "DURDIS": 72.1,
      "DURDSGR1": ">=12",
      "VISIT1DT": 19612.0,
      "RFSTDTC": "2013-09-16",
      "RFENDTC": "2013-09-29",
      "VISNUMEN": 4.0,
      "RFENDT": 19630.0,
      "DCDECOD": "ADVERSE EVENT",
      "EOSSTT": "DISCONTINUED",
      "DCSREAS": "Adverse Event",
      "MMSETOT": 19.0
    },
    {
      "STUDYID": "CDISCPILOT01",
      "USUBJID": "01-705-1280",
      "SUBJID": "1280",
      "SITEID": "705",
      "SITEGR1": "705",
      "ARM": "Xanomeline High Dose",
      "TRT01P": "Xanomeline High Dose",
      "TRT01PN": 81.0,
      "TRT01A": "Xanomeline High Dose",
      "TRT01AN": 81.0,
      "TRTSDT": 19740.0,
      "TRTEDT": 19929.0,
      "TRTDURD": 190.0,
      "AVGDD": 76.9,
      "CUMDOSE": 14607.0,
      "AGE": 56.0,
      "AGEGR1": "<65",
      "AGEGR1N": 1.0,
      "AGEU": "YEARS",
      "RACE": "WHITE",
      "RACEN": 1.0,
      "SEX": "F",
      "ETHNIC": "NOT HISPANIC OR LATINO",
      "SAFFL": "Y",
      "ITTFL": "Y",
      "EFFFL": "Y",
      "COMP8FL": "Y",
      "COMP16FL": "Y",
      "COMP24FL": "Y",
      "DISCONFL": "",
      "DSRAEFL": "",
      "DTHFL": "",
      "BMIBL": 28.0,
      "BMIBLGR1": "25-<30",
      "HEIGHTBL": 157.5,
      "WEIGHTBL": 69.4,
      "EDUCLVL": 12.0,
      "DISONSDT": 19362.0,
      "DURDIS": 12.3,
      "DURDSGR1": ">=12",
      "VISIT1DT": 19734.0,
      "RFSTDTC": "2014-01-17",
      "RFENDTC": "2014-07-25",
      "VISNUMEN": 12.0,
      "RFENDT": 19929.0,
      "DCDECOD": "COMPLETED",
      "EOSSTT": "COMPLETED",
      "DCSREAS": "",
      "MMSETOT": 23.0
    },
    {
      "STUDYID": "CDISCPILOT01",
      "USUBJID": "01-705-1281",
      "SUBJID": "1281",
      "SITEID": "705",
      "SITEGR1": "705",
      "ARM": "Xanomeline High Dose",
      "TRT01P": "Xanomeline High Dose",
      "TRT01PN": 81.0,
      "TRT01A": "Xanomeline High Dose",
      "TRT01AN": 81.0,
      "TRTSDT": 19690.0,
      "TRTEDT": 19781.0,
      "TRTDURD": 92.0,
      "AVGDD": 75.7,
      "CUMDOSE": 6966.0,
      "AGE": 73.0,
      "AGEGR1": "65-80",
      "AGEGR1N": 2.0,
      "AGEU": "YEARS",
      "RACE": "BLACK OR AFRICAN AMERICAN",
      "RACEN": 2.0,
      "SEX": "F",
      "ETHNIC": "NOT HISPANIC OR LATINO",
      "SAFFL": "Y",
      "ITTFL": "Y",
      "EFFFL": "Y",
      "COMP8FL": "Y",
      "COMP16FL": "Y",
      "COMP24FL": "N",
      "DISCONFL": "Y",
      "DSRAEFL": "Y",
      "DTHFL": "",
      "BMIBL": 31.4,
      "BMIBLGR1": ">=30",
      "HEIGHTBL": 152.4,
      "WEIGHTBL": 73.0,
      "EDUCLVL": 12.0,
      "DISONSDT": 19302.0,
      "DURDIS": 12.7,
      "DURDSGR1": ">=12",
      "VISIT1DT": 19688.0,
      "RFSTDTC": "2013-11-28",
      "RFENDTC": "2014-03-17",
      "VISNUMEN": 10.0,
      "RFENDT": 19799.0,
      "DCDECOD": "ADVERSE EVENT",
      "EOSSTT": "DISCONTINUED",
      "DCSREAS": "Adverse Event",
      "MMSETOT": 23.0
    },
    {
      "STUDYID": "CDISCPILOT01",
      "USUBJID": "01-705-1282",
      "SUBJID": "1282",
      "SITEID": "705",
      "SITEGR1": "705",
      "ARM": "Placebo",
      "TRT01P": "Placebo",
      "TRT01PN": 5.397605346934028e-79,
      "TRT01A": "Placebo",
      "TRT01AN": 5.397605346934028e-79,
      "TRTSDT": 19353.0,
      "TRTEDT": 19533.0,
      "TRTDURD": 181.0,
      "AVGDD": 5.397605346934028e-79,
      "CUMDOSE": 5.397605346934028e-79,
      "AGE": 70.0,
      "AGEGR1": "65-80",
      "AGEGR1N": 2.0,
      "AGEU": "YEARS",
      "RACE": "BLACK OR AFRICAN AMERICAN",
      "RACEN": 2.0,
      "SEX": "F",
      "ETHNIC": "NOT HISPANIC OR LATINO",
      "SAFFL": "Y",
      "ITTFL": "Y",
      "EFFFL": "Y",
      "COMP8FL": "Y",
      "COMP16FL": "Y",
      "COMP24FL": "Y",
      "DISCONFL": "",
      "DSRAEFL": "",
      "DTHFL": "",
      "BMIBL": 30.4,
      "BMIBLGR1": ">=30",
      "HEIGHTBL": 154.9,
      "WEIGHTBL": 73.0,
      "EDUCLVL": 12.0,
      "DISONSDT": 17141.0,
      "DURDIS": 72.6,
      "DURDSGR1": ">=12",
      "VISIT1DT": 19350.0,
      "RFSTDTC": "2012-12-26",
      "RFENDTC": "2013-06-24",
      "VISNUMEN": 12.0,
      "RFENDT": 19533.0,
      "DCDECOD": "COMPLETED",
      "EOSSTT": "COMPLETED",
      "DCSREAS": "",
      "MMSETOT": 10.0
    },
    {
      "STUDYID": "CDISCPILOT01",
      "USUBJID": "01-705-1292",
      "SUBJID": "1292",
      "SITEID": "705",
      "SITEGR1": "705",
      "ARM": "Xanomeline Low Dose",
      "TRT01P": "Xanomeline Low Dose",
      "TRT01PN": 54.0,
      "TRT01A": "Xanomeline Low Dose",
      "TRT01AN": 54.0,
      "TRTSDT": 19645.0,
      "TRTEDT": 19856.0,
      "TRTDURD": 212.0,
      "AVGDD": 54.0,
      "CUMDOSE": 11448.0,
      "AGE": 60.0,
      "AGEGR1": "<65",
      "AGEGR1N": 1.0,
      "AGEU": "YEARS",
      "RACE": "BLACK OR AFRICAN AMERICAN",
      "RACEN": 2.0,
      "SEX": "F",
      "ETHNIC": "NOT HISPANIC OR LATINO",
      "SAFFL": "Y",
      "ITTFL": "Y",
      "EFFFL": "Y",
      "COMP8FL": "Y",
      "COMP16FL": "Y",
      "COMP24FL": "Y",
      "DISCONFL": "",
      "DSRAEFL": "",
      "DTHFL": "",
      "BMIBL": 26.8,
      "BMIBLGR1": "25-<30",
      "HEIGHTBL": 167.6,
      "WEIGHTBL": 75.3,
      "EDUCLVL": 8.0,
      "DISONSDT": 19264.0,
      "DURDIS": 12.5,
      "DURDSGR1": ">=12",
      "VISIT1DT": 19642.0,
      "RFSTDTC": "2013-10-14",
      "RFENDTC": "2014-05-14",
      "VISNUMEN": 12.0,
      "RFENDT": 19857.0,
      "DCDECOD": "COMPLETED",
      "EOSSTT": "COMPLETED",
      "DCSREAS": "",
      "MMSETOT": 23.0
    },
    {
      "STUDYID": "CDISCPILOT01",
      "USUBJID": "01-705-1303",
      "SUBJID": "1303",
      "SITEID": "705",
      "SITEGR1": "705",
      "ARM": "Xanomeline High Dose",
      "TRT01P": "Xanomeline High Dose",
      "TRT01PN": 81.0,
      "TRT01A": "Xanomeline High Dose",
      "TRT01AN": 81.0,
      "TRTSDT": 19708.0,
      "TRTEDT": 19876.0,
      "TRTDURD": 169.0,
      "AVGDD": 78.6,
      "CUMDOSE": 13284.0,
      "AGE": 72.0,
      "AGEGR1": "65-80",
      "AGEGR1N": 2.0,
      "AGEU": "YEARS",
      "RACE": "WHITE",
      "RACEN": 1.0,
      "SEX": "M",
      "ETHNIC": "NOT HISPANIC OR LATINO",
      "SAFFL": "Y",
      "ITTFL": "Y",
      "EFFFL": "Y",
      "COMP8FL": "Y",
      "COMP16FL": "Y",
      "COMP24FL": "N",
      "DISCONFL": "Y",
      "DSRAEFL": "Y",
      "DTHFL": "",
      "BMIBL": 27.5,
      "BMIBLGR1": "25-<30",
      "HEIGHTBL": 175.3,
      "WEIGHTBL": 84.4,
      "EDUCLVL": 12.0,
      "DISONSDT": 18611.0,
      "DURDIS": 35.9,
      "DURDSGR1": ">=12",
      "VISIT1DT": 19702.0,
      "RFSTDTC": "2013-12-16",
      "RFENDTC": "2014-06-02",
      "VISNUMEN": 11.0,
      "RFENDT": 19876.0,
      "DCDECOD": "ADVERSE EVENT",
      "EOSSTT": "DISCONTINUED",
      "DCSREAS": "Adverse Event",
      "MMSETOT": 19.0
    },
    {
      "STUDYID": "CDISCPILOT01",
      "USUBJID": "01-705-1310",
      "SUBJID": "1310",
      "SITEID": "705",
      "SITEGR1": "705",
      "ARM": "Xanomeline High Dose",
      "TRT01P": "Xanomeline High Dose",
      "TRT01PN": 81.0,
      "TRT01A": "Xanomeline High Dose",
      "TRT01AN": 81.0,
      "TRTSDT": 19664.0,
      "TRTEDT": 19746.0,
      "TRTDURD": 83.0,
      "AVGDD": 74.2,
      "CUMDOSE": 6156.0,
      "AGE": 74.0,
      "AGEGR1": "65-80",
      "AGEGR1N": 2.0,
      "AGEU": "YEARS",
      "RACE": "WHITE",
      "RACEN": 1.0,
      "SEX": "F",
      "ETHNIC": "NOT HISPANIC OR LATINO",
      "SAFFL": "Y",
      "ITTFL": "Y",
      "EFFFL": "Y",
      "COMP8FL": "Y",
      "COMP16FL": "N",
      "COMP24FL": "N",
      "DISCONFL": "Y",
      "DSRAEFL": "Y",
      "DTHFL": "",
      "BMIBL": 22.7,
      "BMIBLGR1": "<25",
      "HEIGHTBL": 146.1,
      "WEIGHTBL": 48.5,
      "EDUCLVL": 12.0,
      "DISONSDT": 18930.0,
      "DURDIS": 23.9,
      "DURDSGR1": ">=12",
      "VISIT1DT": 19657.0,
      "RFSTDTC": "2013-11-02",
      "RFENDTC": "2014-01-23",
      "VISNUMEN": 9.0,
      "RFENDT": 19746.0,
      "DCDECOD": "ADVERSE EVENT",
      "EOSSTT": "DISCONTINUED",
      "DCSREAS": "Adverse Event",
      "MMSETOT": 20.0
    },
    {
      "STUDYID": "CDISCPILOT01",
      "USUBJID": "01-705-1349",
      "SUBJID": "1349",
      "SITEID": "705",
      "SITEGR1": "705",
      "ARM": "Placebo",
      "TRT01P": "Placebo",
      "TRT01PN": 5.397605346934028e-79,
      "TRT01A": "Placebo",
      "TRT01AN": 5.397605346934028e-79,
      "TRTSDT": 19427.0,
      "TRTEDT": 19609.0,
      "TRTDURD": 183.0,
      "AVGDD": 5.397605346934028e-79,
      "CUMDOSE": 5.397605346934028e-79,
      "AGE": 86.0,
      "AGEGR1": ">80",
      "AGEGR1N": 3.0,
      "AGEU": "YEARS",
      "RACE": "WHITE",
      "RACEN": 1.0,
      "SEX": "F",
      "ETHNIC": "HISPANIC OR LATINO",
      "SAFFL": "Y",
      "ITTFL": "Y",
      "EFFFL": "Y",
      "COMP8FL": "Y",
      "COMP16FL": "Y",
      "COMP24FL": "Y",
      "DISCONFL": "",
      "DSRAEFL": "",
      "DTHFL": "",
      "BMIBL": 21.2,
      "BMIBLGR1": "<25",
      "HEIGHTBL": 144.8,
      "WEIGHTBL": 44.5,
      "EDUCLVL": 10.0,
      "DISONSDT": 17248.0,
      "DURDIS": 71.2,
      "DURDSGR1": ">=12",
      "VISIT1DT": 19413.0,
      "RFSTDTC": "2013-03-10",
      "RFENDTC": "2013-09-08",
      "VISNUMEN": 12.0,
      "RFENDT": 19609.0,
      "DCDECOD": "COMPLETED",
      "EOSSTT": "COMPLETED",
      "DCSREAS": "",
      "MMSETOT": 15.0
    },
    {
      "STUDYID": "CDISCPILOT01",
      "USUBJID": "01-705-1377",
      "SUBJID": "1377",
      "SITEID": "705",
      "SITEGR1": "705",
      "ARM": "Xanomeline High Dose",
      "TRT01P": "Xanomeline High Dose",
      "TRT01PN": 81.0,
      "TRT01A": "Xanomeline High Dose",
      "TRT01AN": 81.0,
      "TRTSDT": 19727.0,
      "TRTEDT": 19789.0,
      "TRTDURD": 63.0,
      "AVGDD": 71.6,
      "CUMDOSE": 4509.0,
      "AGE": 63.0,
      "AGEGR1": "<65",
      "AGEGR1N": 1.0,
      "AGEU": "YEARS",
      "RACE": "BLACK OR AFRICAN AMERICAN",
      "RACEN": 2.0,
      "SEX": "F",
      "ETHNIC": "NOT HISPANIC OR LATINO",
      "SAFFL": "Y",
      "ITTFL": "Y",
      "EFFFL": "N",
      "COMP8FL": "N",
      "COMP16FL": "N",
      "COMP24FL": "N",
      "DISCONFL": "Y",
      "DSRAEFL": "",
      "DTHFL": "",
      "BMIBL": 21.0,
      "BMIBLGR1": "<25",
      "HEIGHTBL": 165.1,
      "WEIGHTBL": 57.2,
      "EDUCLVL": 6.0,
      "DISONSDT": 18997.0,
      "DURDIS": 23.8,
      "DURDSGR1": ">=12",
      "VISIT1DT": 19721.0,
      "RFSTDTC": "2014-01-04",
      "RFENDTC": "2014-03-07",
      "VISNUMEN": 7.0,
      "RFENDT": 19789.0,
      "DCDECOD": "WITHDRAWAL BY SUBJECT",
      "EOSSTT": "DISCONTINUED",
      "DCSREAS": "Withdrew Consent",
      "MMSETOT": 14.0
    },
    {
      "STUDYID": "CDISCPILOT01",
      "USUBJID": "01-705-1382",
      "SUBJID": "1382",
      "SITEID": "705",
      "SITEGR1": "705",
      "ARM": "Xanomeline High Dose",
      "TRT01P": "Xanomeline High Dose",
      "TRT01PN": 81.0,
      "TRT01A": "Xanomeline High Dose",
      "TRT01AN": 81.0,
      "TRTSDT": 19491.0,
      "TRTEDT": 19491.0,
      "TRTDURD": 1.0,
      "AVGDD": 54.0,
      "CUMDOSE": 54.0,
      "AGE": 82.0,
      "AGEGR1": ">80",
      "AGEGR1N": 3.0,
      "AGEU": "YEARS",
      "RACE": "WHITE",
      "RACEN": 1.0,
      "SEX": "M",
      "ETHNIC": "NOT HISPANIC OR LATINO",
      "SAFFL": "Y",
      "ITTFL": "Y",
      "EFFFL": "N",
      "COMP8FL": "N",
      "COMP16FL": "N",
      "COMP24FL": "N",
      "DISCONFL": "Y",
      "DSRAEFL": "",
      "DTHFL": "",
      "BMIBL": 33.2,
      "BMIBLGR1": ">=30",
      "HEIGHTBL": 170.2,
      "WEIGHTBL": 96.2,
      "EDUCLVL": 12.0,
      "DISONSDT": 19116.0,
      "DURDIS": 12.2,
      "DURDSGR1": ">=12",
      "VISIT1DT": 19487.0,
      "RFSTDTC": "2013-05-13",
      "RFENDTC": "2013-05-13",
      "VISNUMEN": 4.0,
      "RFENDT": 19491.0,
      "DCDECOD": "PROTOCOL VIOLATION",
      "EOSSTT": "DISCONTINUED",
      "DCSREAS": "I/E Not Met",
      "MMSETOT": 19.0
    },
    {
      "STUDYID": "CDISCPILOT01",
      "USUBJID": "01-705-1393",
      "SUBJID": "1393",
      "SITEID": "705",
      "SITEGR1": "705",
      "ARM": "Xanomeline Low Dose",
      "TRT01P": "Xanomeline Low Dose",
      "TRT01PN": 54.0,
      "TRT01A": "Xanomeline Low Dose",
      "TRT01AN": 54.0,
      "TRTSDT": 19243.0,
      "TRTEDT": 19390.0,
      "TRTDURD": 148.0,
      "AVGDD": 54.0,
      "CUMDOSE": 7992.0,
      "AGE": 84.0,
      "AGEGR1": ">80",
      "AGEGR1N": 3.0,
      "AGEU": "YEARS",
      "RACE": "WHITE",
      "RACEN": 1.0,
      "SEX": "F",
      "ETHNIC": "NOT HISPANIC OR LATINO",
      "SAFFL": "Y",
      "ITTFL": "Y",
      "EFFFL": "Y",
      "COMP8FL": "Y",
      "COMP16FL": "Y",
      "COMP24FL": "N",
      "DISCONFL": "Y",
      "DSRAEFL": "Y",
      "DTHFL": "",
      "BMIBL": 26.9,
      "BMIBLGR1": "25-<30",
      "HEIGHTBL": 144.8,
      "WEIGHTBL": 56.3,
      "EDUCLVL": 13.0,
      "DISONSDT": 16322.0,
      "DURDIS": 95.8,
      "DURDSGR1": ">=12",
      "VISIT1DT": 19238.0,
      "RFSTDTC": "2012-09-07",
      "RFENDTC": "2013-02-20",
      "VISNUMEN": 11.0,
      "RFENDT": 19409.0,
      "DCDECOD": "ADVERSE EVENT",
      "EOSSTT": "DISCONTINUED",
      "DCSREAS": "Adverse Event",
      "MMSETOT": 19.0
    },
    {
      "STUDYID": "CDISCPILOT01",
      "USUBJID": "01-705-1431",
      "SUBJID": "1431",
      "SITEID": "705",
      "SITEGR1": "705",
      "ARM": "Xanomeline Low Dose",
      "TRT01P": "Xanomeline Low Dose",
      "TRT01PN": 54.0,
      "TRT01A": "Xanomeline Low Dose",
      "TRT01AN": 54.0,
      "TRTSDT": 19532.0,
      "TRTEDT": 19711.0,
      "TRTDURD": 180.0,
      "AVGDD": 54.0,
      "CUMDOSE": 9720.0,
      "AGE": 68.0,
      "AGEGR1": "65-80",
      "AGEGR1N": 2.0,
      "AGEU": "YEARS",
      "RACE": "WHITE",
      "RACEN": 1.0,
      "SEX": "F",
      "ETHNIC": "HISPANIC OR LATINO",
      "SAFFL": "Y",
      "ITTFL": "Y",
      "EFFFL": "Y",
      "COMP8FL": "Y",
      "COMP16FL": "Y",
      "COMP24FL": "Y",
      "DISCONFL": "",
      "DSRAEFL": "",
      "DTHFL": "",
      "BMIBL": 24.2,
      "BMIBLGR1": "<25",
      "HEIGHTBL": 149.9,
      "WEIGHTBL": 54.4,
      "EDUCLVL": 12.0,
      "DISONSDT": 18447.0,
      "DURDIS": 35.4,
      "DURDSGR1": ">=12",
      "VISIT1DT": 19525.0,
      "RFSTDTC": "2013-06-23",
      "RFENDTC": "2013-12-19",
      "VISNUMEN": 12.0,
      "RFENDT": 19711.0,
      "DCDECOD": "COMPLETED",
      "EOSSTT": "COMPLETED",
      "DCSREAS": "",
      "MMSETOT": 21.0
    },
    {
      "STUDYID": "CDISCPILOT01",
      "USUBJID": "01-706-1041",
      "SUBJID": "1041",
      "SITEID": "706",
      "SITEGR1": "900",
      "ARM": "Placebo",
      "TRT01P": "Placebo",
      "TRT01PN": 5.397605346934028e-79,
      "TRT01A": "Placebo",
      "TRT01AN": 5.397605346934028e-79,
      "TRTSDT": 19723.0,
      "TRTEDT": 19932.0,
      "TRTDURD": 210.0,
      "AVGDD": 5.397605346934028e-79,
      "CUMDOSE": 5.397605346934028e-79,
      "AGE": 64.0,
      "AGEGR1": "<65",
      "AGEGR1N": 1.0,
      "AGEU": "YEARS",
      "RACE": "BLACK OR AFRICAN AMERICAN",
      "RACEN": 2.0,
      "SEX": "F",
      "ETHNIC": "NOT HISPANIC OR LATINO",
      "SAFFL": "Y",
      "ITTFL": "Y",
      "EFFFL": "Y",
      "COMP8FL": "Y",
      "COMP16FL": "Y",
      "COMP24FL": "Y",
      "DISCONFL": "",
      "DSRAEFL": "",
      "DTHFL": "",
      "BMIBL": 20.9,
      "BMIBLGR1": "<25",
      "HEIGHTBL": 167.6,
      "WEIGHTBL": 58.7,
      "EDUCLVL": 15.0,
      "DISONSDT": 18949.0,
      "DURDIS": 25.1,
      "DURDSGR1": ">=12",
      "VISIT1DT": 19713.0,
      "RFSTDTC": "2013-12-31",
      "RFENDTC": "2014-07-29",
      "VISNUMEN": 12.0,
      "RFENDT": 19933.0,
      "DCDECOD": "COMPLETED",
      "EOSSTT": "COMPLETED",
      "DCSREAS": "",
      "MMSETOT": 20.0
    },
    {
      "STUDYID": "CDISCPILOT01",
      "USUBJID": "01-706-1049",
      "SUBJID": "1049",
      "SITEID": "706",
      "SITEGR1": "900",
      "ARM": "Xanomeline High Dose",
      "TRT01P": "Xanomeline High Dose",
      "TRT01PN": 81.0,
      "TRT01A": "Xanomeline High Dose",
      "TRT01AN": 81.0,
      "TRTSDT": 19492.0,
      "TRTEDT": 19527.0,
      "TRTDURD": 36.0,
      "AVGDD": 69.8,
      "CUMDOSE": 2511.0,
      "AGE": 60.0,
      "AGEGR1": "<65",
      "AGEGR1N": 1.0,
      "AGEU": "YEARS",
      "RACE": "WHITE",
      "RACEN": 1.0,
      "SEX": "F",
      "ETHNIC": "NOT HISPANIC OR LATINO",
      "SAFFL": "Y",
      "ITTFL": "Y",
      "EFFFL": "Y",
      "COMP8FL": "N",
      "COMP16FL": "N",
      "COMP24FL": "N",
      "DISCONFL": "Y",
      "DSRAEFL": "Y",
      "DTHFL": "",
      "BMIBL": 20.6,
      "BMIBLGR1": "<25",
      "HEIGHTBL": 167.6,
      "WEIGHTBL": 57.8,
      "EDUCLVL": 11.0,
      "DISONSDT": 18384.0,
      "DURDIS": 36.0,
      "DURDSGR1": ">=12",
      "VISIT1DT": 19478.0,
      "RFSTDTC": "2013-05-14",
      "RFENDTC": "2013-06-25",
      "VISNUMEN": 7.0,
      "RFENDT": 19534.0,
      "DCDECOD": "ADVERSE EVENT",
      "EOSSTT": "DISCONTINUED",
      "DCSREAS": "Adverse Event",
      "MMSETOT": 16.0
    },
    {
      "STUDYID": "CDISCPILOT01",
      "USUBJID": "01-706-1384",
      "SUBJID": "1384",
      "SITEID": "706",
      "SITEGR1": "900",
      "ARM": "Xanomeline Low Dose",
      "TRT01P": "Xanomeline Low Dose",
      "TRT01PN": 54.0,
      "TRT01A": "Xanomeline Low Dose",
      "TRT01AN": 54.0,
      "TRTSDT": 19251.0,
      "TRTEDT": 19260.0,
      "TRTDURD": 10.0,
      "AVGDD": 54.0,
      "CUMDOSE": 540.0,
      "AGE": 74.0,
      "AGEGR1": "65-80",
      "AGEGR1N": 2.0,
      "AGEU": "YEARS",
      "RACE": "WHITE",
      "RACEN": 1.0,
      "SEX": "F",
      "ETHNIC": "NOT HISPANIC OR LATINO",
      "SAFFL": "Y",
      "ITTFL": "Y",
      "EFFFL": "Y",
      "COMP8FL": "N",
      "COMP16FL": "N",
      "COMP24FL": "N",
      "DISCONFL": "Y",
      "DSRAEFL": "Y",
      "DTHFL": "",
      "BMIBL": 30.6,
      "BMIBLGR1": ">=30",
      "HEIGHTBL": 157.5,
      "WEIGHTBL": 76.0,
      "EDUCLVL": 8.0,
      "DISONSDT": 17656.0,
      "DURDIS": 51.7,
      "DURDSGR1": ">=12",
      "VISIT1DT": 19230.0,
      "RFSTDTC": "2012-09-15",
      "RFENDTC": "2012-09-29",
      "VISNUMEN": 4.0,
      "RFENDT": 19265.0,
      "DCDECOD": "ADVERSE EVENT",
      "EOSSTT": "DISCONTINUED",
      "DCSREAS": "Adverse Event",
      "MMSETOT": 20.0
    },
    {
      "STUDYID": "CDISCPILOT01",
      "USUBJID": "01-707-1037",
      "SUBJID": "1037",
      "SITEID": "707",
      "SITEGR1": "900",
      "ARM": "Xanomeline Low Dose",
      "TRT01P": "Xanomeline Low Dose",
      "TRT01PN": 54.0,
      "TRT01A": "Xanomeline Low Dose",
      "TRT01AN": 54.0,
      "TRTSDT": 19712.0,
      "TRTEDT": 19716.0,
      "TRTDURD": 5.0,
      "AVGDD": 54.0,
      "CUMDOSE": 270.0,
      "AGE": 72.0,
      "AGEGR1": "65-80",
      "AGEGR1N": 2.0,
      "AGEU": "YEARS",
      "RACE": "WHITE",
      "RACEN": 1.0,
      "SEX": "F",
      "ETHNIC": "NOT HISPANIC OR LATINO",
      "SAFFL": "Y",
      "ITTFL": "Y",
      "EFFFL": "Y",
      "COMP8FL": "N",
      "COMP16FL": "N",
      "COMP24FL": "N",
      "DISCONFL": "Y",
      "DSRAEFL": "",
      "DTHFL": "",
      "BMIBL": 23.8,
      "BMIBLGR1": "<25",
      "HEIGHTBL": 152.4,
      "WEIGHTBL": 55.3,
      "EDUCLVL": 14.0,
      "DISONSDT": 17899.0,
      "DURDIS": 59.3,
      "DURDSGR1": ">=12",
      "VISIT1DT": 19704.0,
      "RFSTDTC": "2013-12-20",
      "RFENDTC": "2014-01-08",
      "VISNUMEN": 4.0,
      "RFENDT": 19731.0,
      "DCDECOD": "WITHDRAWAL BY SUBJECT",
      "EOSSTT": "DISCONTINUED",
      "DCSREAS": "Withdrew Consent",
      "MMSETOT": 24.0
    },
    {
      "STUDYID": "CDISCPILOT01",
      "USUBJID": "01-707-1206",
      "SUBJID": "1206",
      "SITEID": "707",
      "SITEGR1": "900",
      "ARM": "Placebo",
      "TRT01P": "Placebo",
      "TRT01PN": 5.397605346934028e-79,
      "TRT01A": "Placebo",
      "TRT01AN": 5.397605346934028e-79,
      "TRTSDT": 19659.0,
      "TRTEDT": 19839.0,
      "TRTDURD": 181.0,
      "AVGDD": 5.397605346934028e-79,
      "CUMDOSE": 5.397605346934028e-79,
      "AGE": 65.0,
      "AGEGR1": "65-80",
      "AGEGR1N": 2.0,
      "AGEU": "YEARS",
      "RACE": "WHITE",
      "RACEN": 1.0,
      "SEX": "M",
      "ETHNIC": "NOT HISPANIC OR LATINO",
      "SAFFL": "Y",
      "ITTFL": "Y",
      "EFFFL": "Y",
      "COMP8FL": "Y",
      "COMP16FL": "Y",
      "COMP24FL": "Y",
      "DISCONFL": "",
      "DSRAEFL": "",
      "DTHFL": "",
      "BMIBL": 24.6,
      "BMIBLGR1": "<25",
      "HEIGHTBL": 174.0,
      "WEIGHTBL": 74.4,
      "EDUCLVL": 7.0,
      "DISONSDT": 19228.0,
      "DURDIS": 13.9,
      "DURDSGR1": ">=12",
      "VISIT1DT": 19651.0,
      "RFSTDTC": "2013-10-28",
      "RFENDTC": "2014-04-27",
      "VISNUMEN": 12.0,
      "RFENDT": 19840.0,
      "DCDECOD": "COMPLETED",
      "EOSSTT": "COMPLETED",
      "DCSREAS": "",
      "MMSETOT": 21.0
    },
    {
      "STUDYID": "CDISCPILOT01",
      "USUBJID": "01-708-1019",
      "SUBJID": "1019",
      "SITEID": "708",
      "SITEGR1": "708",
      "ARM": "Xanomeline Low Dose",
      "TRT01P": "Xanomeline Low Dose",
      "TRT01PN": 54.0,
      "TRT01A": "Xanomeline Low Dose",
      "TRT01AN": 54.0,
      "TRTSDT": 19712.0,
      "TRTEDT": 19724.0,
      "TRTDURD": 13.0,
      "AVGDD": 54.0,
      "CUMDOSE": 702.0,
      "AGE": 68.0,
      "AGEGR1": "65-80",
      "AGEGR1N": 2.0,
      "AGEU": "YEARS",
      "RACE": "WHITE",
      "RACEN": 1.0,
      "SEX": "M",
      "ETHNIC": "NOT HISPANIC OR LATINO",
      "SAFFL": "Y",
      "ITTFL": "Y",
      "EFFFL": "Y",
      "COMP8FL": "N",
      "COMP16FL": "N",
      "COMP24FL": "N",
      "DISCONFL": "Y",
      "DSRAEFL": "Y",
      "DTHFL": "",
      "BMIBL": 22.2,
      "BMIBLGR1": "<25",
      "HEIGHTBL": 182.9,
      "WEIGHTBL": 74.4,
      "EDUCLVL": 18.0,
      "DISONSDT": 17154.0,
      "DURDIS": 83.7,
      "DURDSGR1": ">=12",
      "VISIT1DT": 19702.0,
      "RFSTDTC": "2013-12-20",
      "RFENDTC": "2014-01-23",
      "VISNUMEN": 4.0,
      "RFENDT": 19746.0,
      "DCDECOD": "ADVERSE EVENT",
      "EOSSTT": "DISCONTINUED",
      "DCSREAS": "Adverse Event",
      "MMSETOT": 17.0
    },
    {
      "STUDYID": "CDISCPILOT01",
      "USUBJID": "01-708-1032",
      "SUBJID": "1032",
      "SITEID": "708",
      "SITEGR1": "708",
      "ARM": "Xanomeline Low Dose",
      "TRT01P": "Xanomeline Low Dose",
      "TRT01PN": 54.0,
      "TRT01A": "Xanomeline Low Dose",
      "TRT01AN": 54.0,
      "TRTSDT": 19398.0,
      "TRTEDT": 19418.0,
      "TRTDURD": 21.0,
      "AVGDD": 54.0,
      "CUMDOSE": 1134.0,
      "AGE": 62.0,
      "AGEGR1": "<65",
      "AGEGR1N": 1.0,
      "AGEU": "YEARS",
      "RACE": "WHITE",
      "RACEN": 1.0,
      "SEX": "M",
      "ETHNIC": "NOT HISPANIC OR LATINO",
      "SAFFL": "Y",
      "ITTFL": "Y",
      "EFFFL": "Y",
      "COMP8FL": "N",
      "COMP16FL": "N",
      "COMP24FL": "N",
      "DISCONFL": "Y",
      "DSRAEFL": "Y",
      "DTHFL": "",
      "BMIBL": 26.1,
      "BMIBLGR1": "25-<30",
      "HEIGHTBL": 177.8,
      "WEIGHTBL": 82.6,
      "EDUCLVL": 12.0,
      "DISONSDT": 15537.0,
      "DURDIS": 126.7,
      "DURDSGR1": ">=12",
      "VISIT1DT": 19391.0,
      "RFSTDTC": "2013-02-09",
      "RFENDTC": "2013-03-09",
      "VISNUMEN": 5.0,
      "RFENDT": 19426.0,
      "DCDECOD": "ADVERSE EVENT",
      "EOSSTT": "DISCONTINUED",
      "DCSREAS": "Adverse Event",
      "MMSETOT": 18.0
    },
    {
      "STUDYID": "CDISCPILOT01",
      "USUBJID": "01-708-1084",
      "SUBJID": "1084",
      "SITEID": "708",
      "SITEGR1": "708",
      "ARM": "Xanomeline Low Dose",
      "TRT01P": "Xanomeline Low Dose",
      "TRT01PN": 54.0,
      "TRT01A": "Xanomeline Low Dose",
      "TRT01AN": 54.0,
      "TRTSDT": 19487.0,
      "TRTEDT": 19673.0,
      "TRTDURD": 187.0,
      "AVGDD": 54.0,
      "CUMDOSE": 10098.0,
      "AGE": 73.0,
      "AGEGR1": "65-80",
      "AGEGR1N": 2.0,
      "AGEU": "YEARS",
      "RACE": "WHITE",
      "RACEN": 1.0,
      "SEX": "F",
      "ETHNIC": "NOT HISPANIC OR LATINO",
      "SAFFL": "Y",
      "ITTFL": "Y",
      "EFFFL": "Y",
      "COMP8FL": "Y",
      "COMP16FL": "Y",
      "COMP24FL": "Y",
      "DISCONFL": "",
      "DSRAEFL": "",
      "DTHFL": "",
      "BMIBL": 17.9,
      "BMIBLGR1": "<25",
      "HEIGHTBL": 167.6,
      "WEIGHTBL": 50.4,
      "EDUCLVL": 12.0,
      "DISONSDT": 18378.0,
      "DURDIS": 36.2,
      "DURDSGR1": ">=12",
      "VISIT1DT": 19479.0,
      "RFSTDTC": "2013-05-09",
      "RFENDTC": "2013-11-11",
      "VISNUMEN": 12.0,
      "RFENDT": 19673.0,
      "DCDECOD": "COMPLETED",
      "EOSSTT": "COMPLETED",
      "DCSREAS": "",
      "MMSETOT": 23.0
    },
    {
      "STUDYID": "CDISCPILOT01",
      "USUBJID": "01-708-1087",
      "SUBJID": "1087",
      "SITEID": "708",
      "SITEGR1": "708",
      "ARM": "Placebo",
      "TRT01P": "Placebo",
      "TRT01PN": 5.397605346934028e-79,
      "TRT01A": "Placebo",
      "TRT01AN": 5.397605346934028e-79,
      "TRTSDT": 19288.0,
      "TRTEDT": 19476.0,
      "TRTDURD": 189.0,
      "AVGDD": 5.397605346934028e-79,
      "CUMDOSE": 5.397605346934028e-79,
      "AGE": 74.0,
      "AGEGR1": "65-80",
      "AGEGR1N": 2.0,
      "AGEU": "YEARS",
      "RACE": "WHITE",
      "RACEN": 1.0,
      "SEX": "F",
      "ETHNIC": "NOT HISPANIC OR LATINO",
      "SAFFL": "Y",
      "ITTFL": "Y",
      "EFFFL": "Y",
      "COMP8FL": "Y",
      "COMP16FL": "Y",
      "COMP24FL": "Y",
      "DISCONFL": "",
      "DSRAEFL": "",
      "DTHFL": "",
      "BMIBL": 26.9,
      "BMIBLGR1": "25-<30",
      "HEIGHTBL": 157.5,
      "WEIGHTBL": 66.7,
      "EDUCLVL": 12.0,
      "DISONSDT": 17777.0,
      "DURDIS": 49.1,
      "DURDSGR1": ">=12",
      "VISIT1DT": 19272.0,
      "RFSTDTC": "2012-10-22",
      "RFENDTC": "2013-04-28",
      "VISNUMEN": 12.0,
      "RFENDT": 19476.0,
      "DCDECOD": "COMPLETED",
      "EOSSTT": "COMPLETED",
      "DCSREAS": "",
      "MMSETOT": 17.0
    },
    {
      "STUDYID": "CDISCPILOT01",
      "USUBJID": "01-708-1158",
      "SUBJID": "1158",
      "SITEID": "708",
      "SITEGR1": "708",
      "ARM": "Placebo",
      "TRT01P": "Placebo",
      "TRT01PN": 5.397605346934028e-79,
      "TRT01A": "Placebo",
      "TRT01AN": 5.397605346934028e-79,
      "TRTSDT": 19762.0,
      "TRTEDT": 19803.0,
      "TRTDURD": 42.0,
      "AVGDD": 5.397605346934028e-79,
      "CUMDOSE": 5.397605346934028e-79,
      "AGE": 81.0,
      "AGEGR1": ">80",
      "AGEGR1N": 3.0,
      "AGEU": "YEARS",
      "RACE": "WHITE",
      "RACEN": 1.0,
      "SEX": "F",
      "ETHNIC": "NOT HISPANIC OR LATINO",
      "SAFFL": "Y",
      "ITTFL": "Y",
      "EFFFL": "Y",
      "COMP8FL": "N",
      "COMP16FL": "N",
      "COMP24FL": "N",
      "DISCONFL": "Y",
      "DSRAEFL": "Y",
      "DTHFL": "",
      "BMIBL": 27.8,
      "BMIBLGR1": "25-<30",
      "HEIGHTBL": 162.6,
      "WEIGHTBL": 73.5,
      "EDUCLVL": 8.0,
      "DISONSDT": 18475.0,
      "DURDIS": 42.1,
      "DURDSGR1": ">=12",
      "VISIT1DT": 19755.0,
      "RFSTDTC": "2014-02-08",
      "RFENDTC": "2014-03-22",
      "VISNUMEN": 7.0,
      "RFENDT": 19804.0,
      "DCDECOD": "ADVERSE EVENT",
      "EOSSTT": "DISCONTINUED",
      "DCSREAS": "Adverse Event",
      "MMSETOT": 16.0
    },
    {
      "STUDYID": "CDISCPILOT01",
      "USUBJID": "01-708-1171",
      "SUBJID": "1171",
      "SITEID": "708",
      "SITEGR1": "708",
      "ARM": "Placebo",
      "TRT01P": "Placebo",
      "TRT01PN": 5.397605346934028e-79,
      "TRT01A": "Placebo",
      "TRT01AN": 5.397605346934028e-79,
      "TRTSDT": 19333.0,
      "TRTEDT": 19513.0,
      "TRTDURD": 181.0,
      "AVGDD": 5.397605346934028e-79,
      "CUMDOSE": 5.397605346934028e-79,
      "AGE": 77.0,
      "AGEGR1": "65-80",
      "AGEGR1N": 2.0,
      "AGEU": "YEARS",
      "RACE": "WHITE",
      "RACEN": 1.0,
      "SEX": "F",
      "ETHNIC": "NOT HISPANIC OR LATINO",
      "SAFFL": "Y",
      "ITTFL": "Y",
      "EFFFL": "Y",
      "COMP8FL": "Y",
      "COMP16FL": "Y",
      "COMP24FL": "Y",
      "DISCONFL": "",
      "DSRAEFL": "",
      "DTHFL": "",
      "BMIBL": 20.8,
      "BMIBLGR1": "<25",
      "HEIGHTBL": 162.6,
      "WEIGHTBL": 54.9,
      "EDUCLVL": 9.0,
      "DISONSDT": 18529.0,
      "DURDIS": 26.1,
      "DURDSGR1": ">=12",
      "VISIT1DT": 19322.0,
      "RFSTDTC": "2012-12-06",
      "RFENDTC": "2013-06-04",
      "VISNUMEN": 12.0,
      "RFENDT": 19513.0,
      "DCDECOD": "COMPLETED",
      "EOSSTT": "COMPLETED",
      "DCSREAS": "",
      "MMSETOT": 13.0
    },
    {
      "STUDYID": "CDISCPILOT01",
      "USUBJID": "01-708-1178",
      "SUBJID": "1178",
      "SITEID": "708",
      "SITEGR1": "708",
      "ARM": "Xanomeline High Dose",
      "TRT01P": "Xanomeline High Dose",
      "TRT01PN": 81.0,
      "TRT01A": "Xanomeline High Dose",
      "TRT01AN": 81.0,
      "TRTSDT": 19721.0,
      "TRTEDT": 19819.0,
      "TRTDURD": 99.0,
      "AVGDD": 75.3,
      "CUMDOSE": 7452.0,
      "AGE": 77.0,
      "AGEGR1": "65-80",
      "AGEGR1N": 2.0,
      "AGEU": "YEARS",
      "RACE": "BLACK OR AFRICAN AMERICAN",
      "RACEN": 2.0,
      "SEX": "F",
      "ETHNIC": "NOT HISPANIC OR LATINO",
      "SAFFL": "Y",
      "ITTFL": "Y",
      "EFFFL": "Y",
      "COMP8FL": "Y",
      "COMP16FL": "N",
      "COMP24FL": "N",
      "DISCONFL": "Y",
      "DSRAEFL": "",
      "DTHFL": "",
      "BMIBL": 23.0,
      "BMIBLGR1": "<25",
      "HEIGHTBL": 165.1,
      "WEIGHTBL": 62.8,
      "EDUCLVL": 8.0,
      "DISONSDT": 17754.0,
      "DURDIS": 64.1,
      "DURDSGR1": ">=12",
      "VISIT1DT": 19705.0,
      "RFSTDTC": "2013-12-29",
      "RFENDTC": "2014-04-06",
      "VISNUMEN": 9.0,
      "RFENDT": 19819.0,
      "DCDECOD": "PHYSICIAN DECISION",
      "EOSSTT": "DISCONTINUED",
      "DCSREAS": "Physician Decision",
      "MMSETOT": 10.0
    },
    {
      "STUDYID": "CDISCPILOT01",
      "USUBJID": "01-708-1213",
      "SUBJID": "1213",
      "SITEID": "708",
      "SITEGR1": "708",
      "ARM": "Xanomeline High Dose",
      "TRT01P": "Xanomeline High Dose",
      "TRT01PN": 81.0,
      "TRT01A": "Xanomeline High Dose",
      "TRT01AN": 81.0,
      "TRTSDT": 19398.0,
      "TRTEDT": 19411.0,
      "TRTDURD": 14.0,
      "AVGDD": 54.0,
      "CUMDOSE": 756.0,
      "AGE": 76.0,
      "AGEGR1": "65-80",
      "AGEGR1N": 2.0,
      "AGEU": "YEARS",
      "RACE": "WHITE",
      "RACEN": 1.0,
      "SEX": "F",
      "ETHNIC": "NOT HISPANIC OR LATINO",
      "SAFFL": "Y",
      "ITTFL": "Y",
      "EFFFL": "N",
      "COMP8FL": "N",
      "COMP16FL": "N",
      "COMP24FL": "N",
      "DISCONFL": "Y",
      "DSRAEFL": "Y",
      "DTHFL": "",
      "BMIBL": 15.3,
      "BMIBLGR1": "<25",
      "HEIGHTBL": 165.1,
      "WEIGHTBL": 41.7,
      "EDUCLVL": 12.0,
      "DISONSDT": 18664.0,
      "DURDIS": 23.9,
      "DURDSGR1": ">=12",
      "VISIT1DT": 19390.0,
      "RFSTDTC": "2013-02-09",
      "RFENDTC": "2013-02-26",
      "VISNUMEN": 5.0,
      "RFENDT": 19415.0,
      "DCDECOD": "ADVERSE EVENT",
      "EOSSTT": "DISCONTINUED",
      "DCSREAS": "Adverse Event",
      "MMSETOT": 14.0
    },
    {
      "STUDYID": "CDISCPILOT01",
      "USUBJID": "01-708-1216",
      "SUBJID": "1216",
      "SITEID": "708",
      "SITEGR1": "708",
      "ARM": "Xanomeline High Dose",
      "TRT01P": "Xanomeline High Dose",
      "TRT01PN": 81.0,
      "TRT01A": "Xanomeline High Dose",
      "TRT01AN": 81.0,
      "TRTSDT": 19290.0,
      "TRTEDT": 19326.0,
      "TRTDURD": 37.0,
      "AVGDD": 69.3,
      "CUMDOSE": 2565.0,
      "AGE": 78.0,
      "AGEGR1": "65-80",
      "AGEGR1N": 2.0,
      "AGEU": "YEARS",
      "RACE": "WHITE",
      "RACEN": 1.0,
      "SEX": "M",
      "ETHNIC": "NOT HISPANIC OR LATINO",
      "SAFFL": "Y",
      "ITTFL": "Y",
      "EFFFL": "Y",
      "COMP8FL": "N",
      "COMP16FL": "N",
      "COMP24FL": "N",
      "DISCONFL": "Y",
      "DSRAEFL": "Y",
      "DTHFL": "",
      "BMIBL": 25.9,
      "BMIBLGR1": "25-<30",
      "HEIGHTBL": 172.7,
      "WEIGHTBL": 77.1,
      "EDUCLVL": 12.0,
      "DISONSDT": 15171.0,
      "DURDIS": 135.0,
      "DURDSGR1": ">=12",
      "VISIT1DT": 19280.0,
      "RFSTDTC": "2012-10-24",
      "RFENDTC": "2012-12-06",
      "VISNUMEN": 7.0,
      "RFENDT": 19333.0,
      "DCDECOD": "ADVERSE EVENT",
      "EOSSTT": "DISCONTINUED",
      "DCSREAS": "Adverse Event",
      "MMSETOT": 17.0
    },
    {
      "STUDYID": "CDISCPILOT01",
      "USUBJID": "01-708-1236",
      "SUBJID": "1236",
      "SITEID": "708",
      "SITEGR1": "708",
      "ARM": "Xanomeline High Dose",
      "TRT01P": "Xanomeline High Dose",
      "TRT01PN": 81.0,
      "TRT01A": "Xanomeline High Dose",
      "TRT01AN": 81.0,
      "TRTSDT": 19622.0,
      "TRTEDT": 19622.0,
      "TRTDURD": 1.0,
      "AVGDD": 54.0,
      "CUMDOSE": 54.0,
      "AGE": 86.0,
      "AGEGR1": ">80",
      "AGEGR1N": 3.0,
      "AGEU": "YEARS",
      "RACE": "WHITE",
      "RACEN": 1.0,
      "SEX": "F",
      "ETHNIC": "NOT HISPANIC OR LATINO",
      "SAFFL": "Y",
      "ITTFL": "Y",
      "EFFFL": "N",
      "COMP8FL": "N",
      "COMP16FL": "N",
      "COMP24FL": "N",
      "DISCONFL": "Y",
      "DSRAEFL": "",
      "DTHFL": "",
      "BMIBL": 23.4,
      "BMIBLGR1": "<25",
      "HEIGHTBL": 152.4,
      "WEIGHTBL": 54.4,
      "EDUCLVL": 8.0,
      "DISONSDT": 19244.0,
      "DURDIS": 12.0,
      "DURDSGR1": ">=12",
      "VISIT1DT": 19609.0,
      "RFSTDTC": "2013-09-21",
      "RFENDTC": "2013-09-26",
      "VISNUMEN": 4.0,
      "RFENDT": 19627.0,
      "DCDECOD": "WITHDRAWAL BY SUBJECT",
      "EOSSTT": "DISCONTINUED",
      "DCSREAS": "Withdrew Consent",
      "MMSETOT": 22.0
    },
    {
      "STUDYID": "CDISCPILOT01",
      "USUBJID": "01-708-1253",
      "SUBJID": "1253",
      "SITEID": "708",
      "SITEGR1": "708",
      "ARM": "Placebo",
      "TRT01P": "Placebo",
      "TRT01PN": 5.397605346934028e-79,
      "TRT01A": "Placebo",
      "TRT01AN": 5.397605346934028e-79,
      "TRTSDT": 19485.0,
      "TRTEDT": 19667.0,
      "TRTDURD": 183.0,
      "AVGDD": 5.397605346934028e-79,
      "CUMDOSE": 5.397605346934028e-79,
      "AGE": 61.0,
      "AGEGR1": "<65",
      "AGEGR1N": 1.0,
      "AGEU": "YEARS",
      "RACE": "WHITE",
      "RACEN": 1.0,
      "SEX": "M",
      "ETHNIC": "NOT HISPANIC OR LATINO",
      "SAFFL": "Y",
      "ITTFL": "Y",
      "EFFFL": "Y",
      "COMP8FL": "Y",
      "COMP16FL": "Y",
      "COMP24FL": "Y",
      "DISCONFL": "",
      "DSRAEFL": "",
      "DTHFL": "",
      "BMIBL": 22.1,
      "BMIBLGR1": "<25",
      "HEIGHTBL": 185.4,
      "WEIGHTBL": 75.8,
      "EDUCLVL": 12.0,
      "DISONSDT": 17968.0,
      "DURDIS": 49.5,
      "DURDSGR1": ">=12",
      "VISIT1DT": 19474.0,
      "RFSTDTC": "2013-05-07",
      "RFENDTC": "2013-11-05",
      "VISNUMEN": 12.0,
      "RFENDT": 19667.0,
      "DCDECOD": "COMPLETED",
      "EOSSTT": "COMPLETED",
      "DCSREAS": "",
      "MMSETOT": 12.0
    },
    {
      "STUDYID": "CDISCPILOT01",
      "USUBJID": "01-708-1272",
      "SUBJID": "1272",
      "SITEID": "708",
      "SITEGR1": "708",
      "ARM": "Xanomeline Low Dose",
      "TRT01P": "Xanomeline Low Dose",
      "TRT01PN": 54.0,
      "TRT01A": "Xanomeline Low Dose",
      "TRT01AN": 54.0,
      "TRTSDT": 19395.0,
      "TRTEDT": 19439.0,
      "TRTDURD": 45.0,
      "AVGDD": 54.0,
      "CUMDOSE": 2430.0,
      "AGE": 82.0,
      "AGEGR1": ">80",
      "AGEGR1N": 3.0,
      "AGEU": "YEARS",
      "RACE": "WHITE",
      "RACEN": 1.0,
      "SEX": "M",
      "ETHNIC": "NOT HISPANIC OR LATINO",
      "SAFFL": "Y",
      "ITTFL": "Y",
      "EFFFL": "Y",
      "COMP8FL": "Y",
      "COMP16FL": "N",
      "COMP24FL": "N",
      "DISCONFL": "Y",
      "DSRAEFL": "",
      "DTHFL": "",
      "BMIBL": 24.9,
      "BMIBLGR1": "<25",
      "HEIGHTBL": 172.7,
      "WEIGHTBL": 74.4,
      "EDUCLVL": 11.0,
      "DISONSDT": 17020.0,
      "DURDIS": 77.6,
      "DURDSGR1": ">=12",
      "VISIT1DT": 19380.0,
      "RFSTDTC": "2013-02-06",
      "RFENDTC": "2013-04-04",
      "VISNUMEN": 8.0,
      "RFENDT": 19452.0,
      "DCDECOD": "WITHDRAWAL BY SUBJECT",
      "EOSSTT": "DISCONTINUED",
      "DCSREAS": "Withdrew Consent",
      "MMSETOT": 15.0
    },
    {
      "STUDYID": "CDISCPILOT01",
      "USUBJID": "01-708-1286",
      "SUBJID": "1286",
      "SITEID": "708",
      "SITEGR1": "708",
      "ARM": "Placebo",
      "TRT01P": "Placebo",
      "TRT01PN": 5.397605346934028e-79,
      "TRT01A": "Placebo",
      "TRT01AN": 5.397605346934028e-79,
      "TRTSDT": 19611.0,
      "TRTEDT": 19790.0,
      "TRTDURD": 180.0,
      "AVGDD": 5.397605346934028e-79,
      "CUMDOSE": 5.397605346934028e-79,
      "AGE": 80.0,
      "AGEGR1": "65-80",
      "AGEGR1N": 2.0,
      "AGEU": "YEARS",
      "RACE": "BLACK OR AFRICAN AMERICAN",
      "RACEN": 2.0,
      "SEX": "F",
      "ETHNIC": "NOT HISPANIC OR LATINO",
      "SAFFL": "Y",
      "ITTFL": "Y",
      "EFFFL": "Y",
      "COMP8FL": "Y",
      "COMP16FL": "Y",
      "COMP24FL": "Y",
      "DISCONFL": "",
      "DSRAEFL": "",
      "DTHFL": "",
      "BMIBL": 32.8,
      "BMIBLGR1": ">=30",
      "HEIGHTBL": 152.4,
      "WEIGHTBL": 76.2,
      "EDUCLVL": 12.0,
      "DISONSDT": 15251.0,
      "DURDIS": 142.8,
      "DURDSGR1": ">=12",
      "VISIT1DT": 19595.0,
      "RFSTDTC": "2013-09-10",
      "RFENDTC": "2014-03-08",
      "VISNUMEN": 12.0,
      "RFENDT": 19790.0,
      "DCDECOD": "COMPLETED",
      "EOSSTT": "COMPLETED",
      "DCSREAS": "",
      "MMSETOT": 10.0
    },
    {
      "STUDYID": "CDISCPILOT01",
      "USUBJID": "01-708-1296",
      "SUBJID": "1296",
      "SITEID": "708",
      "SITEGR1": "708",
      "ARM": "Placebo",
      "TRT01P": "Placebo",
      "TRT01PN": 5.397605346934028e-79,
      "TRT01A": "Placebo",
      "TRT01AN": 5.397605346934028e-79,
      "TRTSDT": 19523.0,
      "TRTEDT": 19704.0,
      "TRTDURD": 182.0,
      "AVGDD": 5.397605346934028e-79,
      "CUMDOSE": 5.397605346934028e-79,
      "AGE": 57.0,
      "AGEGR1": "<65",
      "AGEGR1N": 1.0,
      "AGEU": "YEARS",
      "RACE": "BLACK OR AFRICAN AMERICAN",
      "RACEN": 2.0,
      "SEX": "M",
      "ETHNIC": "NOT HISPANIC OR LATINO",
      "SAFFL": "Y",
      "ITTFL": "Y",
      "EFFFL": "Y",
      "COMP8FL": "Y",
      "COMP16FL": "Y",
      "COMP24FL": "Y",
      "DISCONFL": "",
      "DSRAEFL": "",
      "DTHFL": "",
      "BMIBL": 27.9,
      "BMIBLGR1": "25-<30",
      "HEIGHTBL": 170.2,
      "WEIGHTBL": 80.7,
      "EDUCLVL": 18.0,
      "DISONSDT": 18296.0,
      "DURDIS": 40.1,
      "DURDSGR1": ">=12",
      "VISIT1DT": 19516.0,
      "RFSTDTC": "2013-06-14",
      "RFENDTC": "2013-12-12",
      "VISNUMEN": 12.0,
      "RFENDT": 19704.0,
      "DCDECOD": "COMPLETED",
      "EOSSTT": "COMPLETED",
      "DCSREAS": "",
      "MMSETOT": 16.0
    },
    {
      "STUDYID": "CDISCPILOT01",
      "USUBJID": "01-708-1297",
      "SUBJID": "1297",
      "SITEID": "708",
      "SITEGR1": "708",
      "ARM": "Xanomeline Low Dose",
      "TRT01P": "Xanomeline Low Dose",
      "TRT01PN": 54.0,
      "TRT01A": "Xanomeline Low Dose",
      "TRT01AN": 54.0,
      "TRTSDT": 19383.0,
      "TRTEDT": 19481.0,
      "TRTDURD": 99.0,
      "AVGDD": 54.0,
      "CUMDOSE": 5346.0,
      "AGE": 61.0,
      "AGEGR1": "<65",
      "AGEGR1N": 1.0,
      "AGEU": "YEARS",
      "RACE": "WHITE",
      "RACEN": 1.0,
      "SEX": "M",
      "ETHNIC": "NOT HISPANIC OR LATINO",
      "SAFFL": "Y",
      "ITTFL": "Y",
      "EFFFL": "Y",
      "COMP8FL": "Y",
      "COMP16FL": "Y",
      "COMP24FL": "N",
      "DISCONFL": "Y",
      "DSRAEFL": "Y",
      "DTHFL": "",
      "BMIBL": 23.0,
      "BMIBLGR1": "<25",
      "HEIGHTBL": 185.4,
      "WEIGHTBL": 78.9,
      "EDUCLVL": 13.0,
      "DISONSDT": 17589.0,
      "DURDIS": 58.6,
      "DURDSGR1": ">=12",
      "VISIT1DT": 19373.0,
      "RFSTDTC": "2013-01-25",
      "RFENDTC": "2013-05-08",
      "VISNUMEN": 10.0,
      "RFENDT": 19486.0,
      "DCDECOD": "ADVERSE EVENT",
      "EOSSTT": "DISCONTINUED",
      "DCSREAS": "Adverse Event",
      "MMSETOT": 23.0
    },
    {
      "STUDYID": "CDISCPILOT01",
      "USUBJID": "01-708-1316",
      "SUBJID": "1316",
      "SITEID": "708",
      "SITEGR1": "708",
      "ARM": "Placebo",
      "TRT01P": "Placebo",
      "TRT01PN": 5.397605346934028e-79,
      "TRT01A": "Placebo",
      "TRT01AN": 5.397605346934028e-79,
      "TRTSDT": 19593.0,
      "TRTEDT": 19783.0,
      "TRTDURD": 191.0,
      "AVGDD": 5.397605346934028e-79,
      "CUMDOSE": 5.397605346934028e-79,
      "AGE": 74.0,
      "AGEGR1": "65-80",
      "AGEGR1N": 2.0,
      "AGEU": "YEARS",
      "RACE": "WHITE",
      "RACEN": 1.0,
      "SEX": "F",
      "ETHNIC": "NOT HISPANIC OR LATINO",
      "SAFFL": "Y",
      "ITTFL": "Y",
      "EFFFL": "Y",
      "COMP8FL": "Y",
      "COMP16FL": "Y",
      "COMP24FL": "Y",
      "DISCONFL": "",
      "DSRAEFL": "",
      "DTHFL": "",
      "BMIBL": 23.4,
      "BMIBLGR1": "<25",
      "HEIGHTBL": 160.0,
      "WEIGHTBL": 59.9,
      "EDUCLVL": 12.0,
      "DISONSDT": 18847.0,
      "DURDIS": 24.3,
      "DURDSGR1": ">=12",
      "VISIT1DT": 19585.0,
      "RFSTDTC": "2013-08-23",
      "RFENDTC": "2014-03-01",
      "VISNUMEN": 12.0,
      "RFENDT": 19783.0,
      "DCDECOD": "COMPLETED",
      "EOSSTT": "COMPLETED",
      "DCSREAS": "",
      "MMSETOT": 22.0
    },
    {
      "STUDYID": "CDISCPILOT01",
      "USUBJID": "01-708-1336",
      "SUBJID": "1336",
      "SITEID": "708",
      "SITEGR1": "708",
      "ARM": "Xanomeline High Dose",
      "TRT01P": "Xanomeline High Dose",
      "TRT01PN": 81.0,
      "TRT01A": "Xanomeline High Dose",
      "TRT01AN": 81.0,
      "TRTSDT": 19334.0,
      "TRTEDT": 19514.0,
      "TRTDURD": 181.0,
      "AVGDD": 76.7,
      "CUMDOSE": 13878.0,
      "AGE": 73.0,
      "AGEGR1": "65-80",
      "AGEGR1N": 2.0,
      "AGEU": "YEARS",
      "RACE": "WHITE",
      "RACEN": 1.0,
      "SEX": "M",
      "ETHNIC": "NOT HISPANIC OR LATINO",
      "SAFFL": "Y",
      "ITTFL": "Y",
      "EFFFL": "Y",
      "COMP8FL": "Y",
      "COMP16FL": "Y",
      "COMP24FL": "Y",
      "DISCONFL": "",
      "DSRAEFL": "",
      "DTHFL": "",
      "BMIBL": 24.1,
      "BMIBLGR1": "<25",
      "HEIGHTBL": 190.5,
      "WEIGHTBL": 87.5,
      "EDUCLVL": 18.0,
      "DISONSDT": 15675.0,
      "DURDIS": 119.7,
      "DURDSGR1": ">=12",
      "VISIT1DT": 19318.0,
      "RFSTDTC": "2012-12-07",
      "RFENDTC": "2013-06-05",
      "VISNUMEN": 12.0,
      "RFENDT": 19514.0,
      "DCDECOD": "COMPLETED",
      "EOSSTT": "COMPLETED",
      "DCSREAS": "",
      "MMSETOT": 15.0
    },
    {
      "STUDYID": "CDISCPILOT01",
      "USUBJID": "01-708-1342",
      "SUBJID": "1342",
      "SITEID": "708",
      "SITEGR1": "708",
      "ARM": "Placebo",
      "TRT01P": "Placebo",
      "TRT01PN": 5.397605346934028e-79,
      "TRT01A": "Placebo",
      "TRT01AN": 5.397605346934028e-79,
      "TRTSDT": 19356.0,
      "TRTEDT": 19537.0,
      "TRTDURD": 182.0,
      "AVGDD": 5.397605346934028e-79,
      "CUMDOSE": 5.397605346934028e-79,
      "AGE": 59.0,
      "AGEGR1": "<65",
      "AGEGR1N": 1.0,
      "AGEU": "YEARS",
      "RACE": "WHITE",
      "RACEN": 1.0,
      "SEX": "F",
      "ETHNIC": "NOT HISPANIC OR LATINO",
      "SAFFL": "Y",
      "ITTFL": "Y",
      "EFFFL": "Y",
      "COMP8FL": "Y",
      "COMP16FL": "Y",
      "COMP24FL": "Y",
      "DISCONFL": "",
      "DSRAEFL": "",
      "DTHFL": "",
      "BMIBL": 20.4,
      "BMIBLGR1": "<25",
      "HEIGHTBL": 170.2,
      "WEIGHTBL": 59.0,
      "EDUCLVL": 13.0,
      "DISONSDT": 18529.0,
      "DURDIS": 26.9,
      "DURDSGR1": ">=12",
      "VISIT1DT": 19348.0,
      "RFSTDTC": "2012-12-29",
      "RFENDTC": "2013-06-28",
      "VISNUMEN": 12.0,
      "RFENDT": 19537.0,
      "DCDECOD": "COMPLETED",
      "EOSSTT": "COMPLETED",
      "DCSREAS": "",
      "MMSETOT": 18.0
    },
    {
      "STUDYID": "CDISCPILOT01",
      "USUBJID": "01-708-1347",
      "SUBJID": "1347",
      "SITEID": "708",
      "SITEGR1": "708",
      "ARM": "Xanomeline High Dose",
      "TRT01P": "Xanomeline High Dose",
      "TRT01PN": 81.0,
      "TRT01A": "Xanomeline High Dose",
      "TRT01AN": 81.0,
      "TRTSDT": 19468.0,
      "TRTEDT": 19527.0,
      "TRTDURD": 60.0,
      "AVGDD": 74.3,
      "CUMDOSE": 4455.0,
      "AGE": 61.0,
      "AGEGR1": "<65",
      "AGEGR1N": 1.0,
      "AGEU": "YEARS",
      "RACE": "WHITE",
      "RACEN": 1.0,
      "SEX": "F",
      "ETHNIC": "NOT HISPANIC OR LATINO",
      "SAFFL": "Y",
      "ITTFL": "Y",
      "EFFFL": "Y",
      "COMP8FL": "Y",
      "COMP16FL": "N",
      "COMP24FL": "N",
      "DISCONFL": "Y",
      "DSRAEFL": "Y",
      "DTHFL": "",
      "BMIBL": 29.2,
      "BMIBLGR1": "25-<30",
      "HEIGHTBL": 160.0,
      "WEIGHTBL": 74.8,
      "EDUCLVL": 12.0,
      "DISONSDT": 18040.0,
      "DURDIS": 46.7,
      "DURDSGR1": ">=12",
      "VISIT1DT": 19459.0,
      "RFSTDTC": "2013-04-20",
      "RFENDTC": "2013-06-18",
      "VISNUMEN": 9.0,
      "RFENDT": 19527.0,
      "DCDECOD": "ADVERSE EVENT",
      "EOSSTT": "DISCONTINUED",
      "DCSREAS": "Adverse Event",
      "MMSETOT": 22.0
    },
    {
      "STUDYID": "CDISCPILOT01",
      "USUBJID": "01-708-1348",
      "SUBJID": "1348",
      "SITEID": "708",
      "SITEGR1": "708",
      "ARM": "Xanomeline Low Dose",
      "TRT01P": "Xanomeline Low Dose",
      "TRT01PN": 54.0,
      "TRT01A": "Xanomeline Low Dose",
      "TRT01AN": 54.0,
      "TRTSDT": 19575.0,
      "TRTEDT": 19767.0,
      "TRTDURD": 193.0,
      "AVGDD": 54.0,
      "CUMDOSE": 10422.0,
      "AGE": 79.0,
      "AGEGR1": "65-80",
      "AGEGR1N": 2.0,
      "AGEU": "YEARS",
      "RACE": "WHITE",
      "RACEN": 1.0,
      "SEX": "F",
      "ETHNIC": "NOT HISPANIC OR LATINO",
      "SAFFL": "Y",
      "ITTFL": "Y",
      "EFFFL": "Y",
      "COMP8FL": "Y",
      "COMP16FL": "Y",
      "COMP24FL": "Y",
      "DISCONFL": "",
      "DSRAEFL": "",
      "DTHFL": "",
      "BMIBL": 23.6,
      "BMIBLGR1": "<25",
      "HEIGHTBL": 160.0,
      "WEIGHTBL": 60.3,
      "EDUCLVL": 12.0,
      "DISONSDT": 18472.0,
      "DURDIS": 36.0,
      "DURDSGR1": ">=12",
      "VISIT1DT": 19567.0,
      "RFSTDTC": "2013-08-05",
      "RFENDTC": "2014-02-13",
      "VISNUMEN": 12.0,
      "RFENDT": 19767.0,
      "DCDECOD": "COMPLETED",
      "EOSSTT": "COMPLETED",
      "DCSREAS": "",
      "MMSETOT": 13.0
    },
    {
      "STUDYID": "CDISCPILOT01",
      "USUBJID": "01-708-1353",
      "SUBJID": "1353",
      "SITEID": "708",
      "SITEGR1": "708",
      "ARM": "Xanomeline Low Dose",
      "TRT01P": "Xanomeline Low Dose",
      "TRT01PN": 54.0,
      "TRT01A": "Xanomeline Low Dose",
      "TRT01AN": 54.0,
      "TRTSDT": 19543.0,
      "TRTEDT": 19598.0,
      "TRTDURD": 56.0,
      "AVGDD": 54.0,
      "CUMDOSE": 3024.0,
      "AGE": 87.0,
      "AGEGR1": ">80",
      "AGEGR1N": 3.0,
      "AGEU": "YEARS",
      "RACE": "BLACK OR AFRICAN AMERICAN",
      "RACEN": 2.0,
      "SEX": "F",
      "ETHNIC": "NOT HISPANIC OR LATINO",
      "SAFFL": "Y",
      "ITTFL": "Y",
      "EFFFL": "Y",
      "COMP8FL": "Y",
      "COMP16FL": "N",
      "COMP24FL": "N",
      "DISCONFL": "Y",
      "DSRAEFL": "Y",
      "DTHFL": "",
      "BMIBL": 20.3,
      "BMIBLGR1": "<25",
      "HEIGHTBL": 157.5,
      "WEIGHTBL": 50.4,
      "EDUCLVL": 16.0,
      "DISONSDT": 18480.0,
      "DURDIS": 34.4,
      "DURDSGR1": ">=12",
      "VISIT1DT": 19526.0,
      "RFSTDTC": "2013-07-04",
      "RFENDTC": "2013-09-10",
      "VISNUMEN": 8.0,
      "RFENDT": 19611.0,
      "DCDECOD": "ADVERSE EVENT",
      "EOSSTT": "DISCONTINUED",
      "DCSREAS": "Adverse Event",
      "MMSETOT": 16.0
    },
    {
      "STUDYID": "CDISCPILOT01",
      "USUBJID": "01-708-1372",
      "SUBJID": "1372",
      "SITEID": "708",
      "SITEGR1": "708",
      "ARM": "Xanomeline High Dose",
      "TRT01P": "Xanomeline High Dose",
      "TRT01PN": 81.0,
      "TRT01A": "Xanomeline High Dose",
      "TRT01AN": 81.0,
      "TRTSDT": 19460.0,
      "TRTEDT": 19467.0,
      "TRTDURD": 8.0,
      "AVGDD": 54.0,
      "CUMDOSE": 432.0,
      "AGE": 84.0,
      "AGEGR1": ">80",
      "AGEGR1N": 3.0,
      "AGEU": "YEARS",
      "RACE": "WHITE",
      "RACEN": 1.0,
      "SEX": "M",
      "ETHNIC": "NOT HISPANIC OR LATINO",
      "SAFFL": "Y",
      "ITTFL": "Y",
      "EFFFL": "N",
      "COMP8FL": "N",
      "COMP16FL": "N",
      "COMP24FL": "N",
      "DISCONFL": "Y",
      "DSRAEFL": "",
      "DTHFL": "",
      "BMIBL": 30.7,
      "BMIBLGR1": ">=30",
      "HEIGHTBL": 170.2,
      "WEIGHTBL": 88.9,
      "EDUCLVL": 8.0,
      "DISONSDT": 17426.0,
      "DURDIS": 66.6,
      "DURDSGR1": ">=12",
      "VISIT1DT": 19451.0,
      "RFSTDTC": "2013-04-12",
      "RFENDTC": "2013-05-10",
      "VISNUMEN": 4.0,
      "RFENDT": 19488.0,
      "DCDECOD": "PROTOCOL VIOLATION",
      "EOSSTT": "DISCONTINUED",
      "DCSREAS": "I/E Not Met",
      "MMSETOT": 17.0
    },
    {
      "STUDYID": "CDISCPILOT01",
      "USUBJID": "01-708-1378",
      "SUBJID": "1378",
      "SITEID": "708",
      "SITEGR1": "708",
      "ARM": "Placebo",
      "TRT01P": "Placebo",
      "TRT01PN": 5.397605346934028e-79,
      "TRT01A": "Placebo",
      "TRT01AN": 5.397605346934028e-79,
      "TRTSDT": 19604.0,
      "TRTEDT": 19751.0,
      "TRTDURD": 148.0,
      "AVGDD": 5.397605346934028e-79,
      "CUMDOSE": 5.397605346934028e-79,
      "AGE": 67.0,
      "AGEGR1": "65-80",
      "AGEGR1N": 2.0,
      "AGEU": "YEARS",
      "RACE": "BLACK OR AFRICAN AMERICAN",
      "RACEN": 2.0,
      "SEX": "M",
      "ETHNIC": "NOT HISPANIC OR LATINO",
      "SAFFL": "Y",
      "ITTFL": "Y",
      "EFFFL": "Y",
      "COMP8FL": "Y",
      "COMP16FL": "Y",
      "COMP24FL": "N",
      "DISCONFL": "Y",
      "DSRAEFL": "",
      "DTHFL": "",
      "BMIBL": 24.3,
      "BMIBLGR1": "<25",
      "HEIGHTBL": 170.2,
      "WEIGHTBL": 70.3,
      "EDUCLVL": 13.0,
      "DISONSDT": 17972.0,
      "DURDIS": 53.3,
      "DURDSGR1": ">=12",
      "VISIT1DT": 19594.0,
      "RFSTDTC": "2013-09-03",
      "RFENDTC": "2014-01-28",
      "VISNUMEN": 11.0,
      "RFENDT": 19751.0,
      "DCDECOD": "STUDY TERMINATED BY SPONSOR",
      "EOSSTT": "DISCONTINUED",
      "DCSREAS": "Sponsor Decision",
      "MMSETOT": 20.0
    },
    {
      "STUDYID": "CDISCPILOT01",
      "USUBJID": "01-708-1406",
      "SUBJID": "1406",
      "SITEID": "708",
      "SITEGR1": "708",
      "ARM": "Xanomeline High Dose",
      "TRT01P": "Xanomeline High Dose",
      "TRT01PN": 81.0,
      "TRT01A": "Xanomeline High Dose",
      "TRT01AN": 81.0,
      "TRTSDT": 19718.0,
      "TRTEDT": 19906.0,
      "TRTDURD": 189.0,
      "AVGDD": 76.6,
      "CUMDOSE": 14472.0,
      "AGE": 71.0,
      "AGEGR1": "65-80",
      "AGEGR1N": 2.0,
      "AGEU": "YEARS",
      "RACE": "WHITE",
      "RACEN": 1.0,
      "SEX": "F",
      "ETHNIC": "NOT HISPANIC OR LATINO",
      "SAFFL": "Y",
      "ITTFL": "Y",
      "EFFFL": "Y",
      "COMP8FL": "Y",
      "COMP16FL": "Y",
      "COMP24FL": "Y",
      "DISCONFL": "",
      "DSRAEFL": "",
      "DTHFL": "",
      "BMIBL": 22.1,
      "BMIBLGR1": "<25",
      "HEIGHTBL": 157.5,
      "WEIGHTBL": 54.9,
      "EDUCLVL": 13.0,
      "DISONSDT": 18437.0,
      "DURDIS": 41.5,
      "DURDSGR1": ">=12",
      "VISIT1DT": 19698.0,
      "RFSTDTC": "2013-12-26",
      "RFENDTC": "2014-07-02",
      "VISNUMEN": 12.0,
      "RFENDT": 19906.0,
      "DCDECOD": "COMPLETED",
      "EOSSTT": "COMPLETED",
      "DCSREAS": "",
      "MMSETOT": 15.0
    },
    {
      "STUDYID": "CDISCPILOT01",
      "USUBJID": "01-708-1428",
      "SUBJID": "1428",
      "SITEID": "708",
      "SITEGR1": "708",
      "ARM": "Xanomeline Low Dose",
      "TRT01P": "Xanomeline Low Dose",
      "TRT01PN": 54.0,
      "TRT01A": "Xanomeline Low Dose",
      "TRT01AN": 54.0,
      "TRTSDT": 19671.0,
      "TRTEDT": 19706.0,
      "TRTDURD": 36.0,
      "AVGDD": 54.0,
      "CUMDOSE": 1944.0,
      "AGE": 84.0,
      "AGEGR1": ">80",
      "AGEGR1N": 3.0,
      "AGEU": "YEARS",
      "RACE": "WHITE",
      "RACEN": 1.0,
      "SEX": "F",
      "ETHNIC": "NOT HISPANIC OR LATINO",
      "SAFFL": "Y",
      "ITTFL": "Y",
      "EFFFL": "Y",
      "COMP8FL": "Y",
      "COMP16FL": "N",
      "COMP24FL": "N",
      "DISCONFL": "Y",
      "DSRAEFL": "Y",
      "DTHFL": "",
      "BMIBL": 23.8,
      "BMIBLGR1": "<25",
      "HEIGHTBL": 157.5,
      "WEIGHTBL": 59.0,
      "EDUCLVL": 8.0,
      "DISONSDT": 18562.0,
      "DURDIS": 36.2,
      "DURDSGR1": ">=12",
      "VISIT1DT": 19664.0,
      "RFSTDTC": "2013-11-09",
      "RFENDTC": "2014-01-31",
      "VISNUMEN": 8.0,
      "RFENDT": 19754.0,
      "DCDECOD": "ADVERSE EVENT",
      "EOSSTT": "DISCONTINUED",
      "DCSREAS": "Adverse Event",
      "MMSETOT": 19.0
    },
    {
      "STUDYID": "CDISCPILOT01",
      "USUBJID": "01-709-1001",
      "SUBJID": "1001",
      "SITEID": "709",
      "SITEGR1": "709",
      "ARM": "Placebo",
      "TRT01P": "Placebo",
      "TRT01PN": 5.397605346934028e-79,
      "TRT01A": "Placebo",
      "TRT01AN": 5.397605346934028e-79,
      "TRTSDT": 19639.0,
      "TRTEDT": 19821.0,
      "TRTDURD": 183.0,
      "AVGDD": 5.397605346934028e-79,
      "CUMDOSE": 5.397605346934028e-79,
      "AGE": 76.0,
      "AGEGR1": "65-80",
      "AGEGR1N": 2.0,
      "AGEU": "YEARS",
      "RACE": "WHITE",
      "RACEN": 1.0,
      "SEX": "F",
      "ETHNIC": "NOT HISPANIC OR LATINO",
      "SAFFL": "Y",
      "ITTFL": "Y",
      "EFFFL": "Y",
      "COMP8FL": "Y",
      "COMP16FL": "Y",
      "COMP24FL": "Y",
      "DISCONFL": "",
      "DSRAEFL": "",
      "DTHFL": "",
      "BMIBL": 25.2,
      "BMIBLGR1": "25-<30",
      "HEIGHTBL": 170.2,
      "WEIGHTBL": 73.0,
      "EDUCLVL": 12.0,
      "DISONSDT": 18657.0,
      "DURDIS": 31.7,
      "DURDSGR1": ">=12",
      "VISIT1DT": 19621.0,
      "RFSTDTC": "2013-10-08",
      "RFENDTC": "2014-04-08",
      "VISNUMEN": 12.0,
      "RFENDT": 19821.0,
      "DCDECOD": "COMPLETED",
      "EOSSTT": "COMPLETED",
      "DCSREAS": "",
      "MMSETOT": 15.0
    },
    {
      "STUDYID": "CDISCPILOT01",
      "USUBJID": "01-709-1007",
      "SUBJID": "1007",
      "SITEID": "709",
      "SITEGR1": "709",
      "ARM": "Xanomeline Low Dose",
      "TRT01P": "Xanomeline Low Dose",
      "TRT01PN": 54.0,
      "TRT01A": "Xanomeline Low Dose",
      "TRT01AN": 54.0,
      "TRTSDT": 19205.0,
      "TRTEDT": 19233.0,
      "TRTDURD": 29.0,
      "AVGDD": 54.0,
      "CUMDOSE": 1566.0,
      "AGE": 54.0,
      "AGEGR1": "<65",
      "AGEGR1N": 1.0,
      "AGEU": "YEARS",
      "RACE": "WHITE",
      "RACEN": 1.0,
      "SEX": "F",
      "ETHNIC": "NOT HISPANIC OR LATINO",
      "SAFFL": "Y",
      "ITTFL": "Y",
      "EFFFL": "N",
      "COMP8FL": "N",
      "COMP16FL": "N",
      "COMP24FL": "N",
      "DISCONFL": "Y",
      "DSRAEFL": "Y",
      "DTHFL": "",
      "BMIBL": 23.8,
      "BMIBLGR1": "<25",
      "HEIGHTBL": 158.8,
      "WEIGHTBL": 59.9,
      "EDUCLVL": 21.0,
      "DISONSDT": 17225.0,
      "DURDIS": 64.8,
      "DURDSGR1": ">=12",
      "VISIT1DT": 19195.0,
      "RFSTDTC": "2012-07-31",
      "RFENDTC": "2012-09-01",
      "VISNUMEN": 5.0,
      "RFENDT": 19237.0,
      "DCDECOD": "ADVERSE EVENT",
      "EOSSTT": "DISCONTINUED",
      "DCSREAS": "Adverse Event",
      "MMSETOT": 10.0
    },
    {
      "STUDYID": "CDISCPILOT01",
      "USUBJID": "01-709-1020",
      "SUBJID": "1020",
      "SITEID": "709",
      "SITEGR1": "709",
      "ARM": "Xanomeline Low Dose",
      "TRT01P": "Xanomeline Low Dose",
      "TRT01PN": 54.0,
      "TRT01A": "Xanomeline Low Dose",
      "TRT01AN": 54.0,
      "TRTSDT": 19328.0,
      "TRTEDT": 19510.0,
      "TRTDURD": 183.0,
      "AVGDD": 54.0,
      "CUMDOSE": 9882.0,
      "AGE": 72.0,
      "AGEGR1": "65-80",
      "AGEGR1N": 2.0,
      "AGEU": "YEARS",
      "RACE": "WHITE",
      "RACEN": 1.0,
      "SEX": "F",
      "ETHNIC": "NOT HISPANIC OR LATINO",
      "SAFFL": "Y",
      "ITTFL": "Y",
      "EFFFL": "Y",
      "COMP8FL": "Y",
      "COMP16FL": "Y",
      "COMP24FL": "Y",
      "DISCONFL": "",
      "DSRAEFL": "",
      "DTHFL": "",
      "BMIBL": 25.9,
      "BMIBLGR1": "25-<30",
      "HEIGHTBL": 144.8,
      "WEIGHTBL": 54.4,
      "EDUCLVL": 12.0,
      "DISONSDT": 17954.0,
      "DURDIS": 44.9,
      "DURDSGR1": ">=12",
      "VISIT1DT": 19319.0,
      "RFSTDTC": "2012-12-01",
      "RFENDTC": "2013-06-01",
      "VISNUMEN": 12.0,
      "RFENDT": 19510.0,
      "DCDECOD": "COMPLETED",
      "EOSSTT": "COMPLETED",
      "DCSREAS": "",
      "MMSETOT": 15.0
    },
    {
      "STUDYID": "CDISCPILOT01",
      "USUBJID": "01-709-1029",
      "SUBJID": "1029",
      "SITEID": "709",
      "SITEGR1": "709",
      "ARM": "Xanomeline High Dose",
      "TRT01P": "Xanomeline High Dose",
      "TRT01PN": 81.0,
      "TRT01A": "Xanomeline High Dose",
      "TRT01AN": 81.0,
      "TRTSDT": 19352.0,
      "TRTEDT": 19535.0,
      "TRTDURD": 184.0,
      "AVGDD": 76.6,
      "CUMDOSE": 14094.0,
      "AGE": 82.0,
      "AGEGR1": ">80",
      "AGEGR1N": 3.0,
      "AGEU": "YEARS",
      "RACE": "WHITE",
      "RACEN": 1.0,
      "SEX": "M",
      "ETHNIC": "NOT HISPANIC OR LATINO",
      "SAFFL": "Y",
      "ITTFL": "Y",
      "EFFFL": "Y",
      "COMP8FL": "Y",
      "COMP16FL": "Y",
      "COMP24FL": "Y",
      "DISCONFL": "",
      "DSRAEFL": "",
      "DTHFL": "",
      "BMIBL": 23.1,
      "BMIBLGR1": "<25",
      "HEIGHTBL": 172.7,
      "WEIGHTBL": 69.0,
      "EDUCLVL": 20.0,
      "DISONSDT": 18050.0,
      "DURDIS": 42.3,
      "DURDSGR1": ">=12",
      "VISIT1DT": 19337.0,
      "RFSTDTC": "2012-12-25",
      "RFENDTC": "2013-06-26",
      "VISNUMEN": 12.0,
      "RFENDT": 19535.0,
      "DCDECOD": "COMPLETED",
      "EOSSTT": "COMPLETED",
      "DCSREAS": "",
      "MMSETOT": 16.0
    },
    {
      "STUDYID": "CDISCPILOT01",
      "USUBJID": "01-709-1081",
      "SUBJID": "1081",
      "SITEID": "709",
      "SITEGR1": "709",
      "ARM": "Xanomeline Low Dose",
      "TRT01P": "Xanomeline Low Dose",
      "TRT01PN": 54.0,
      "TRT01A": "Xanomeline Low Dose",
      "TRT01AN": 54.0,
      "TRTSDT": 19741.0,
      "TRTEDT": 19840.0,
      "TRTDURD": 100.0,
      "AVGDD": 54.0,
      "CUMDOSE": 5400.0,
      "AGE": 86.0,
      "AGEGR1": ">80",
      "AGEGR1N": 3.0,
      "AGEU": "YEARS",
      "RACE": "WHITE",
      "RACEN": 1.0,
      "SEX": "F",
      "ETHNIC": "NOT HISPANIC OR LATINO",
      "SAFFL": "Y",
      "ITTFL": "Y",
      "EFFFL": "Y",
      "COMP8FL": "Y",
      "COMP16FL": "Y",
      "COMP24FL": "N",
      "DISCONFL": "Y",
      "DSRAEFL": "Y",
      "DTHFL": "",
      "BMIBL": 23.5,
      "BMIBLGR1": "<25",
      "HEIGHTBL": 154.9,
      "WEIGHTBL": 56.5,
      "EDUCLVL": 9.0,
      "DISONSDT": 18845.0,
      "DURDIS": 29.2,
      "DURDSGR1": ">=12",
      "VISIT1DT": 19732.0,
      "RFSTDTC": "2014-01-18",
      "RFENDTC": "2014-05-10",
      "VISNUMEN": 10.0,
      "RFENDT": 19853.0,
      "DCDECOD": "ADVERSE EVENT",
      "EOSSTT": "DISCONTINUED",
      "DCSREAS": "Adverse Event",
      "MMSETOT": 21.0
    },
    {
      "STUDYID": "CDISCPILOT01",
      "USUBJID": "01-709-1088",
      "SUBJID": "1088",
      "SITEID": "709",
      "SITEGR1": "709",
      "ARM": "Placebo",
      "TRT01P": "Placebo",
      "TRT01PN": 5.397605346934028e-79,
      "TRT01A": "Placebo",
      "TRT01AN": 5.397605346934028e-79,
      "TRTSDT": 19825.0,
      "TRTEDT": 20005.0,
      "TRTDURD": 181.0,
      "AVGDD": 5.397605346934028e-79,
      "CUMDOSE": 5.397605346934028e-79,
      "AGE": 69.0,
      "AGEGR1": "65-80",
      "AGEGR1N": 2.0,
      "AGEU": "YEARS",
      "RACE": "WHITE",
      "RACEN": 1.0,
      "SEX": "M",
      "ETHNIC": "NOT HISPANIC OR LATINO",
      "SAFFL": "Y",
      "ITTFL": "Y",
      "EFFFL": "Y",
      "COMP8FL": "Y",
      "COMP16FL": "Y",
      "COMP24FL": "Y",
      "DISCONFL": "",
      "DSRAEFL": "",
      "DTHFL": "",
      "BMIBL": 24.8,
      "BMIBLGR1": "<25",
      "HEIGHTBL": 179.1,
      "WEIGHTBL": 79.4,
      "EDUCLVL": 16.0,
      "DISONSDT": 19048.0,
      "DURDIS": 25.1,
      "DURDSGR1": ">=12",
      "VISIT1DT": 19812.0,
      "RFSTDTC": "2014-04-12",
      "RFENDTC": "2014-10-09",
      "VISNUMEN": 12.0,
      "RFENDT": 20005.0,
      "DCDECOD": "COMPLETED",
      "EOSSTT": "COMPLETED",
      "DCSREAS": "",
      "MMSETOT": 23.0
    },
    {
      "STUDYID": "CDISCPILOT01",
      "USUBJID": "01-709-1099",
      "SUBJID": "1099",
      "SITEID": "709",
      "SITEGR1": "709",
      "ARM": "Xanomeline High Dose",
      "TRT01P": "Xanomeline High Dose",
      "TRT01PN": 81.0,
      "TRT01A": "Xanomeline High Dose",
      "TRT01AN": 81.0,
      "TRTSDT": 19656.0,
      "TRTEDT": 19838.0,
      "TRTDURD": 183.0,
      "AVGDD": 76.1,
      "CUMDOSE": 13932.0,
      "AGE": 79.0,
      "AGEGR1": "65-80",
      "AGEGR1N": 2.0,
      "AGEU": "YEARS",
      "RACE": "WHITE",
      "RACEN": 1.0,
      "SEX": "F",
      "ETHNIC": "NOT HISPANIC OR LATINO",
      "SAFFL": "Y",
      "ITTFL": "Y",
      "EFFFL": "Y",
      "COMP8FL": "Y",
      "COMP16FL": "Y",
      "COMP24FL": "Y",
      "DISCONFL": "",
      "DSRAEFL": "",
      "DTHFL": "",
      "BMIBL": 19.6,
      "BMIBLGR1": "<25",
      "HEIGHTBL": 165.1,
      "WEIGHTBL": 53.5,
      "EDUCLVL": 12.0,
      "DISONSDT": 18007.0,
      "DURDIS": 53.8,
      "DURDSGR1": ">=12",
      "VISIT1DT": 19645.0,
      "RFSTDTC": "2013-10-25",
      "RFENDTC": "2014-04-25",
      "VISNUMEN": 12.0,
      "RFENDT": 19838.0,
      "DCDECOD": "COMPLETED",
      "EOSSTT": "COMPLETED",
      "DCSREAS": "",
      "MMSETOT": 11.0
    },
    {
      "STUDYID": "CDISCPILOT01",
      "USUBJID": "01-709-1102",
      "SUBJID": "1102",
      "SITEID": "709",
      "SITEGR1": "709",
      "ARM": "Xanomeline Low Dose",
      "TRT01P": "Xanomeline Low Dose",
      "TRT01PN": 54.0,
      "TRT01A": "Xanomeline Low Dose",
      "TRT01AN": 54.0,
      "TRTSDT": 19373.0,
      "TRTEDT": 19444.0,
      "TRTDURD": 72.0,
      "AVGDD": 54.0,
      "CUMDOSE": 3888.0,
      "AGE": 71.0,
      "AGEGR1": "65-80",
      "AGEGR1N": 2.0,
      "AGEU": "YEARS",
      "RACE": "WHITE",
      "RACEN": 1.0,
      "SEX": "F",
      "ETHNIC": "NOT HISPANIC OR LATINO",
      "SAFFL": "Y",
      "ITTFL": "Y",
      "EFFFL": "Y",
      "COMP8FL": "Y",
      "COMP16FL": "N",
      "COMP24FL": "N",
      "DISCONFL": "Y",
      "DSRAEFL": "Y",
      "DTHFL": "",
      "BMIBL": 32.1,
      "BMIBLGR1": ">=30",
      "HEIGHTBL": 166.4,
      "WEIGHTBL": 88.9,
      "EDUCLVL": 14.0,
      "DISONSDT": 18091.0,
      "DURDIS": 41.9,
      "DURDSGR1": ">=12",
      "VISIT1DT": 19365.0,
      "RFSTDTC": "2013-01-15",
      "RFENDTC": "2013-03-31",
      "VISNUMEN": 9.0,
      "RFENDT": 19448.0,
      "DCDECOD": "ADVERSE EVENT",
      "EOSSTT": "DISCONTINUED",
      "DCSREAS": "Adverse Event",
      "MMSETOT": 16.0
    },
    {
      "STUDYID": "CDISCPILOT01",
      "USUBJID": "01-709-1168",
      "SUBJID": "1168",
      "SITEID": "709",
      "SITEGR1": "709",
      "ARM": "Xanomeline High Dose",
      "TRT01P": "Xanomeline High Dose",
      "TRT01PN": 81.0,
      "TRT01A": "Xanomeline High Dose",
      "TRT01AN": 81.0,
      "TRTSDT": 19572.0,
      "TRTEDT": 19627.0,
      "TRTDURD": 56.0,
      "AVGDD": 73.3,
      "CUMDOSE": 4104.0,
      "AGE": 72.0,
      "AGEGR1": "65-80",
      "AGEGR1N": 2.0,
      "AGEU": "YEARS",
      "RACE": "WHITE",
      "RACEN": 1.0,
      "SEX": "F",
      "ETHNIC": "NOT HISPANIC OR LATINO",
      "SAFFL": "Y",
      "ITTFL": "Y",
      "EFFFL": "Y",
      "COMP8FL": "Y",
      "COMP16FL": "N",
      "COMP24FL": "N",
      "DISCONFL": "Y",
      "DSRAEFL": "Y",
      "DTHFL": "",
      "BMIBL": 27.6,
      "BMIBLGR1": "25-<30",
      "HEIGHTBL": 149.9,
      "WEIGHTBL": 62.1,
      "EDUCLVL": 12.0,
      "DISONSDT": 18199.0,
      "DURDIS": 44.9,
      "DURDSGR1": ">=12",
      "VISIT1DT": 19564.0,
      "RFSTDTC": "2013-08-02",
      "RFENDTC": "2013-09-27",
      "VISNUMEN": 8.0,
      "RFENDT": 19628.0,
      "DCDECOD": "ADVERSE EVENT",
      "EOSSTT": "DISCONTINUED",
      "DCSREAS": "Adverse Event",
      "MMSETOT": 20.0
    },
    {
      "STUDYID": "CDISCPILOT01",
      "USUBJID": "01-709-1217",
      "SUBJID": "1217",
      "SITEID": "709",
      "SITEGR1": "709",
      "ARM": "Xanomeline Low Dose",
      "TRT01P": "Xanomeline Low Dose",
      "TRT01PN": 54.0,
      "TRT01A": "Xanomeline Low Dose",
      "TRT01AN": 54.0,
      "TRTSDT": 19421.0,
      "TRTEDT": 19520.0,
      "TRTDURD": 100.0,
      "AVGDD": 54.0,
      "CUMDOSE": 5400.0,
      "AGE": 77.0,
      "AGEGR1": "65-80",
      "AGEGR1N": 2.0,
      "AGEU": "YEARS",
      "RACE": "WHITE",
      "RACEN": 1.0,
      "SEX": "M",
      "ETHNIC": "NOT HISPANIC OR LATINO",
      "SAFFL": "Y",
      "ITTFL": "Y",
      "EFFFL": "Y",
      "COMP8FL": "Y",
      "COMP16FL": "Y",
      "COMP24FL": "N",
      "DISCONFL": "Y",
      "DSRAEFL": "Y",
      "DTHFL": "",
      "BMIBL": 23.1,
      "BMIBLGR1": "<25",
      "HEIGHTBL": 171.5,
      "WEIGHTBL": 68.0,
      "EDUCLVL": 6.0,
      "DISONSDT": 17816.0,
      "DURDIS": 52.2,
      "DURDSGR1": ">=12",
      "VISIT1DT": 19405.0,
      "RFSTDTC": "2013-03-04",
      "RFENDTC": "2013-06-25",
      "VISNUMEN": 10.0,
      "RFENDT": 19534.0,
      "DCDECOD": "ADVERSE EVENT",
      "EOSSTT": "DISCONTINUED",
      "DCSREAS": "Adverse Event",
      "MMSETOT": 14.0
    },
    {
      "STUDYID": "CDISCPILOT01",
      "USUBJID": "01-709-1238",
      "SUBJID": "1238",
      "SITEID": "709",
      "SITEGR1": "709",
      "ARM": "Xanomeline High Dose",
      "TRT01P": "Xanomeline High Dose",
      "TRT01PN": 81.0,
      "TRT01A": "Xanomeline High Dose",
      "TRT01AN": 81.0,
      "TRTSDT": 19493.0,
      "TRTEDT": 19576.0,
      "TRTDURD": 84.0,
      "AVGDD": 76.2,
      "CUMDOSE": 6399.0,
      "AGE": 69.0,
      "AGEGR1": "65-80",
      "AGEGR1N": 2.0,
      "AGEU": "YEARS",
      "RACE": "WHITE",
      "RACEN": 1.0,
      "SEX": "M",
      "ETHNIC": "NOT HISPANIC OR LATINO",
      "SAFFL": "Y",
      "ITTFL": "Y",
      "EFFFL": "Y",
      "COMP8FL": "Y",
      "COMP16FL": "N",
      "COMP24FL": "N",
      "DISCONFL": "Y",
      "DSRAEFL": "Y",
      "DTHFL": "",
      "BMIBL": 28.5,
      "BMIBLGR1": "25-<30",
      "HEIGHTBL": 170.2,
      "WEIGHTBL": 82.6,
      "EDUCLVL": 8.0,
      "DISONSDT": 18913.0,
      "DURDIS": 18.7,
      "DURDSGR1": ">=12",
      "VISIT1DT": 19480.0,
      "RFSTDTC": "2013-05-15",
      "RFENDTC": "2013-08-07",
      "VISNUMEN": 9.0,
      "RFENDT": 19577.0,
      "DCDECOD": "ADVERSE EVENT",
      "EOSSTT": "DISCONTINUED",
      "DCSREAS": "Adverse Event",
      "MMSETOT": 24.0
    },
    {
      "STUDYID": "CDISCPILOT01",
      "USUBJID": "01-709-1259",
      "SUBJID": "1259",
      "SITEID": "709",
      "SITEGR1": "709",
      "ARM": "Placebo",
      "TRT01P": "Placebo",
      "TRT01PN": 5.397605346934028e-79,
      "TRT01A": "Placebo",
      "TRT01AN": 5.397605346934028e-79,
      "TRTSDT": 19384.0,
      "TRTEDT": 19522.0,
      "TRTDURD": 139.0,
      "AVGDD": 5.397605346934028e-79,
      "CUMDOSE": 5.397605346934028e-79,
      "AGE": 82.0,
      "AGEGR1": ">80",
      "AGEGR1N": 3.0,
      "AGEU": "YEARS",
      "RACE": "WHITE",
      "RACEN": 1.0,
      "SEX": "M",
      "ETHNIC": "NOT HISPANIC OR LATINO",
      "SAFFL": "Y",
      "ITTFL": "Y",
      "EFFFL": "Y",
      "COMP8FL": "Y",
      "COMP16FL": "Y",
      "COMP24FL": "N",
      "DISCONFL": "Y",
      "DSRAEFL": "",
      "DTHFL": "",
      "BMIBL": 21.9,
      "BMIBLGR1": "<25",
      "HEIGHTBL": 172.7,
      "WEIGHTBL": 65.3,
      "EDUCLVL": 18.0,
      "DISONSDT": 17750.0,
      "DURDIS": 53.3,
      "DURDSGR1": ">=12",
      "VISIT1DT": 19371.0,
      "RFSTDTC": "2013-01-26",
      "RFENDTC": "2013-06-13",
      "VISNUMEN": 11.0,
      "RFENDT": 19522.0,
      "DCDECOD": "LACK OF EFFICACY",
      "EOSSTT": "DISCONTINUED",
      "DCSREAS": "Lack of Efficacy",
      "MMSETOT": 20.0
    },
    {
      "STUDYID": "CDISCPILOT01",
      "USUBJID": "01-709-1285",
      "SUBJID": "1285",
      "SITEID": "709",
      "SITEGR1": "709",
      "ARM": "Xanomeline Low Dose",
      "TRT01P": "Xanomeline Low Dose",
      "TRT01PN": 54.0,
      "TRT01A": "Xanomeline Low Dose",
      "TRT01AN": 54.0,
      "TRTSDT": 19441.0,
      "TRTEDT": 19501.0,
      "TRTDURD": 61.0,
      "AVGDD": 54.0,
      "CUMDOSE": 3294.0,
      "AGE": 87.0,
      "AGEGR1": ">80",
      "AGEGR1N": 3.0,
      "AGEU": "YEARS",
      "RACE": "WHITE",
      "RACEN": 1.0,
      "SEX": "M",
      "ETHNIC": "NOT HISPANIC OR LATINO",
      "SAFFL": "Y",
      "ITTFL": "Y",
      "EFFFL": "Y",
      "COMP8FL": "Y",
      "COMP16FL": "N",
      "COMP24FL": "N",
      "DISCONFL": "Y",
      "DSRAEFL": "",
      "DTHFL": "",
      "BMIBL": 23.1,
      "BMIBLGR1": "<25",
      "HEIGHTBL": 167.6,
      "WEIGHTBL": 64.9,
      "EDUCLVL": 6.0,
      "DISONSDT": 18158.0,
      "DURDIS": 42.0,
      "DURDSGR1": ">=12",
      "VISIT1DT": 19434.0,
      "RFSTDTC": "2013-03-24",
      "RFENDTC": "2013-05-31",
      "VISNUMEN": 9.0,
      "RFENDT": 19509.0,
      "DCDECOD": "STUDY TERMINATED BY SPONSOR",
      "EOSSTT": "DISCONTINUED",
      "DCSREAS": "Sponsor Decision",
      "MMSETOT": 16.0
    },
    {
      "STUDYID": "CDISCPILOT01",
      "USUBJID": "01-709-1301",
      "SUBJID": "1301",
      "SITEID": "709",
      "SITEGR1": "709",
      "ARM": "Placebo",
      "TRT01P": "Placebo",
      "TRT01PN": 5.397605346934028e-79,
      "TRT01A": "Placebo",
      "TRT01AN": 5.397605346934028e-79,
      "TRTSDT": 19558.0,
      "TRTEDT": 19740.0,
      "TRTDURD": 183.0,
      "AVGDD": 5.397605346934028e-79,
      "CUMDOSE": 5.397605346934028e-79,
      "AGE": 62.0,
      "AGEGR1": "<65",
      "AGEGR1N": 1.0,
      "AGEU": "YEARS",
      "RACE": "WHITE",
      "RACEN": 1.0,
      "SEX": "F",
      "ETHNIC": "NOT HISPANIC OR LATINO",
      "SAFFL": "Y",
      "ITTFL": "Y",
      "EFFFL": "Y",
      "COMP8FL": "Y",
      "COMP16FL": "Y",
      "COMP24FL": "Y",
      "DISCONFL": "",
      "DSRAEFL": "",
      "DTHFL": "",
      "BMIBL": 23.6,
      "BMIBLGR1": "<25",
      "HEIGHTBL": 146.1,
      "WEIGHTBL": 50.4,
      "EDUCLVL": 10.0,
      "DISONSDT": 17932.0,
      "DURDIS": 53.3,
      "DURDSGR1": ">=12",
      "VISIT1DT": 19553.0,
      "RFSTDTC": "2013-07-19",
      "RFENDTC": "2014-01-17",
      "VISNUMEN": 12.0,
      "RFENDT": 19740.0,
      "DCDECOD": "COMPLETED",
      "EOSSTT": "COMPLETED",
      "DCSREAS": "",
      "MMSETOT": 10.0
    },
    {
      "STUDYID": "CDISCPILOT01",
      "USUBJID": "01-709-1306",
      "SUBJID": "1306",
      "SITEID": "709",
      "SITEGR1": "709",
      "ARM": "Placebo",
      "TRT01P": "Placebo",
      "TRT01PN": 5.397605346934028e-79,
      "TRT01A": "Placebo",
      "TRT01AN": 5.397605346934028e-79,
      "TRTSDT": 19757.0,
      "TRTEDT": 19890.0,
      "TRTDURD": 134.0,
      "AVGDD": 5.397605346934028e-79,
      "CUMDOSE": 5.397605346934028e-79,
      "AGE": 60.0,
      "AGEGR1": "<65",
      "AGEGR1N": 1.0,
      "AGEU": "YEARS",
      "RACE": "WHITE",
      "RACEN": 1.0,
      "SEX": "F",
      "ETHNIC": "NOT HISPANIC OR LATINO",
      "SAFFL": "Y",
      "ITTFL": "Y",
      "EFFFL": "Y",
      "COMP8FL": "Y",
      "COMP16FL": "Y",
      "COMP24FL": "N",
      "DISCONFL": "Y",
      "DSRAEFL": "Y",
      "DTHFL": "",
      "BMIBL": 18.5,
      "BMIBLGR1": "<25",
      "HEIGHTBL": 154.9,
      "WEIGHTBL": 44.5,
      "EDUCLVL": 12.0,
      "DISONSDT": 17930.0,
      "DURDIS": 59.6,
      "DURDSGR1": ">=12",
      "VISIT1DT": 19742.0,
      "RFSTDTC": "2014-02-03",
      "RFENDTC": "2014-06-25",
      "VISNUMEN": 11.0,
      "RFENDT": 19899.0,
      "DCDECOD": "ADVERSE EVENT",
      "EOSSTT": "DISCONTINUED",
      "DCSREAS": "Adverse Event",
      "MMSETOT": 21.0
    },
    {
      "STUDYID": "CDISCPILOT01",
      "USUBJID": "01-709-1309",
      "SUBJID": "1309",
      "SITEID": "709",
      "SITEGR1": "709",
      "ARM": "Xanomeline High Dose",
      "TRT01P": "Xanomeline High Dose",
      "TRT01PN": 81.0,
      "TRT01A": "Xanomeline High Dose",
      "TRT01AN": 81.0,
      "TRTSDT": 19528.0,
      "TRTEDT": 19711.0,
      "TRTDURD": 184.0,
      "AVGDD": 77.0,
      "CUMDOSE": 14175.0,
      "AGE": 65.0,
      "AGEGR1": "65-80",
      "AGEGR1N": 2.0,
      "AGEU": "YEARS",
      "RACE": "WHITE",
      "RACEN": 1.0,
      "SEX": "M",
      "ETHNIC": "NOT HISPANIC OR LATINO",
      "SAFFL": "Y",
      "ITTFL": "Y",
      "EFFFL": "Y",
      "COMP8FL": "Y",
      "COMP16FL": "Y",
      "COMP24FL": "Y",
      "DISCONFL": "",
      "DSRAEFL": "",
      "DTHFL": "",
      "BMIBL": 24.8,
      "BMIBLGR1": "<25",
      "HEIGHTBL": 177.8,
      "WEIGHTBL": 78.5,
      "EDUCLVL": 16.0,
      "DISONSDT": 18252.0,
      "DURDIS": 41.6,
      "DURDSGR1": ">=12",
      "VISIT1DT": 19518.0,
      "RFSTDTC": "2013-06-19",
      "RFENDTC": "2013-12-19",
      "VISNUMEN": 12.0,
      "RFENDT": 19711.0,
      "DCDECOD": "COMPLETED",
      "EOSSTT": "COMPLETED",
      "DCSREAS": "",
      "MMSETOT": 17.0
    },
    {
      "STUDYID": "CDISCPILOT01",
      "USUBJID": "01-709-1312",
      "SUBJID": "1312",
      "SITEID": "709",
      "SITEGR1": "709",
      "ARM": "Placebo",
      "TRT01P": "Placebo",
      "TRT01PN": 5.397605346934028e-79,
      "TRT01A": "Placebo",
      "TRT01AN": 5.397605346934028e-79,
      "TRTSDT": 19833.0,
      "TRTEDT": 20015.0,
      "TRTDURD": 183.0,
      "AVGDD": 5.397605346934028e-79,
      "CUMDOSE": 5.397605346934028e-79,
      "AGE": 68.0,
      "AGEGR1": "65-80",
      "AGEGR1N": 2.0,
      "AGEU": "YEARS",
      "RACE": "WHITE",
      "RACEN": 1.0,
      "SEX": "F",
      "ETHNIC": "NOT HISPANIC OR LATINO",
      "SAFFL": "Y",
      "ITTFL": "Y",
      "EFFFL": "Y",
      "COMP8FL": "Y",
      "COMP16FL": "Y",
      "COMP24FL": "Y",
      "DISCONFL": "",
      "DSRAEFL": "",
      "DTHFL": "",
      "BMIBL": 20.9,
      "BMIBLGR1": "<25",
      "HEIGHTBL": 160.0,
      "WEIGHTBL": 53.5,
      "EDUCLVL": 13.0,
      "DISONSDT": 18473.0,
      "DURDIS": 44.5,
      "DURDSGR1": ">=12",
      "VISIT1DT": 19826.0,
      "RFSTDTC": "2014-04-20",
      "RFENDTC": "2014-10-19",
      "VISNUMEN": 12.0,
      "RFENDT": 20015.0,
      "DCDECOD": "COMPLETED",
      "EOSSTT": "COMPLETED",
      "DCSREAS": "",
      "MMSETOT": 14.0
    },
    {
      "STUDYID": "CDISCPILOT01",
      "USUBJID": "01-709-1326",
      "SUBJID": "1326",
      "SITEID": "709",
      "SITEGR1": "709",
      "ARM": "Xanomeline Low Dose",
      "TRT01P": "Xanomeline Low Dose",
      "TRT01PN": 54.0,
      "TRT01A": "Xanomeline Low Dose",
      "TRT01AN": 54.0,
      "TRTSDT": 19453.0,
      "TRTEDT": 19633.0,
      "TRTDURD": 181.0,
      "AVGDD": 54.0,
      "CUMDOSE": 9774.0,
      "AGE": 75.0,
      "AGEGR1": "65-80",
      "AGEGR1N": 2.0,
      "AGEU": "YEARS",
      "RACE": "WHITE",
      "RACEN": 1.0,
      "SEX": "F",
      "ETHNIC": "NOT HISPANIC OR LATINO",
      "SAFFL": "Y",
      "ITTFL": "Y",
      "EFFFL": "Y",
      "COMP8FL": "Y",
      "COMP16FL": "Y",
      "COMP24FL": "Y",
      "DISCONFL": "",
      "DSRAEFL": "",
      "DTHFL": "",
      "BMIBL": 28.7,
      "BMIBLGR1": "25-<30",
      "HEIGHTBL": 161.3,
      "WEIGHTBL": 74.8,
      "EDUCLVL": 16.0,
      "DISONSDT": 18524.0,
      "DURDIS": 30.1,
      "DURDSGR1": ">=12",
      "VISIT1DT": 19438.0,
      "RFSTDTC": "2013-04-05",
      "RFENDTC": "2013-10-02",
      "VISNUMEN": 12.0,
      "RFENDT": 19633.0,
      "DCDECOD": "COMPLETED",
      "EOSSTT": "COMPLETED",
      "DCSREAS": "",
      "MMSETOT": 11.0
    },
    {
      "STUDYID": "CDISCPILOT01",
      "USUBJID": "01-709-1329",
      "SUBJID": "1329",
      "SITEID": "709",
      "SITEGR1": "709",
      "ARM": "Xanomeline High Dose",
      "TRT01P": "Xanomeline High Dose",
      "TRT01PN": 81.0,
      "TRT01A": "Xanomeline High Dose",
      "TRT01AN": 81.0,
      "TRTSDT": 19585.0,
      "TRTEDT": 19595.0,
      "TRTDURD": 11.0,
      "AVGDD": 54.0,
      "CUMDOSE": 594.0,
      "AGE": 70.0,
      "AGEGR1": "65-80",
      "AGEGR1N": 2.0,
      "AGEU": "YEARS",
      "RACE": "WHITE",
      "RACEN": 1.0,
      "SEX": "M",
      "ETHNIC": "NOT HISPANIC OR LATINO",
      "SAFFL": "Y",
      "ITTFL": "Y",
      "EFFFL": "Y",
      "COMP8FL": "N",
      "COMP16FL": "N",
      "COMP24FL": "N",
      "DISCONFL": "Y",
      "DSRAEFL": "",
      "DTHFL": "",
      "BMIBL": 26.5,
      "BMIBLGR1": "25-<30",
      "HEIGHTBL": 170.2,
      "WEIGHTBL": 76.7,
      "EDUCLVL": 16.0,
      "DISONSDT": 17964.0,
      "DURDIS": 52.8,
      "DURDSGR1": ">=12",
      "VISIT1DT": 19571.0,
      "RFSTDTC": "2013-08-15",
      "RFENDTC": "2013-08-29",
      "VISNUMEN": 4.0,
      "RFENDT": 19599.0,
      "DCDECOD": "WITHDRAWAL BY SUBJECT",
      "EOSSTT": "DISCONTINUED",
      "DCSREAS": "Withdrew Consent",
      "MMSETOT": 10.0
    },
    {
      "STUDYID": "CDISCPILOT01",
      "USUBJID": "01-709-1339",
      "SUBJID": "1339",
      "SITEID": "709",
      "SITEGR1": "709",
      "ARM": "Placebo",
      "TRT01P": "Placebo",
      "TRT01PN": 5.397605346934028e-79,
      "TRT01A": "Placebo",
      "TRT01AN": 5.397605346934028e-79,
      "TRTSDT": 19350.0,
      "TRTEDT": 19533.0,
      "TRTDURD": 184.0,
      "AVGDD": 5.397605346934028e-79,
      "CUMDOSE": 5.397605346934028e-79,
      "AGE": 81.0,
      "AGEGR1": ">80",
      "AGEGR1N": 3.0,
      "AGEU": "YEARS",
      "RACE": "WHITE",
      "RACEN": 1.0,
      "SEX": "M",
      "ETHNIC": "NOT HISPANIC OR LATINO",
      "SAFFL": "Y",
      "ITTFL": "Y",
      "EFFFL": "Y",
      "COMP8FL": "Y",
      "COMP16FL": "Y",
      "COMP24FL": "Y",
      "DISCONFL": "",
      "DSRAEFL": "",
      "DTHFL": "",
      "BMIBL": 25.4,
      "BMIBLGR1": "25-<30",
      "HEIGHTBL": 175.3,
      "WEIGHTBL": 78.0,
      "EDUCLVL": 16.0,
      "DISONSDT": 18324.0,
      "DURDIS": 33.5,
      "DURDSGR1": ">=12",
      "VISIT1DT": 19342.0,
      "RFSTDTC": "2012-12-23",
      "RFENDTC": "2013-06-24",
      "VISNUMEN": 12.0,
      "RFENDT": 19533.0,
      "DCDECOD": "COMPLETED",
      "EOSSTT": "COMPLETED",
      "DCSREAS": "",
      "MMSETOT": 23.0
    },
    {
      "STUDYID": "CDISCPILOT01",
      "USUBJID": "01-709-1424",
      "SUBJID": "1424",
      "SITEID": "709",
      "SITEGR1": "709",
      "ARM": "Xanomeline High Dose",
      "TRT01P": "Xanomeline High Dose",
      "TRT01PN": 81.0,
      "TRT01A": "Xanomeline High Dose",
      "TRT01AN": 81.0,
      "TRTSDT": 19420.0,
      "TRTEDT": 19424.0,
      "TRTDURD": 5.0,
      "AVGDD": 54.0,
      "CUMDOSE": 270.0,
      "AGE": 77.0,
      "AGEGR1": "65-80",
      "AGEGR1N": 2.0,
      "AGEU": "YEARS",
      "RACE": "WHITE",
      "RACEN": 1.0,
      "SEX": "M",
      "ETHNIC": "NOT HISPANIC OR LATINO",
      "SAFFL": "Y",
      "ITTFL": "Y",
      "EFFFL": "Y",
      "COMP8FL": "N",
      "COMP16FL": "N",
      "COMP24FL": "N",
      "DISCONFL": "Y",
      "DSRAEFL": "Y",
      "DTHFL": "",
      "BMIBL": 22.6,
      "BMIBLGR1": "<25",
      "HEIGHTBL": 174.0,
      "WEIGHTBL": 68.5,
      "EDUCLVL": 16.0,
      "DISONSDT": 17421.0,
      "DURDIS": 65.2,
      "DURDSGR1": ">=12",
      "VISIT1DT": 19404.0,
      "RFSTDTC": "2013-03-03",
      "RFENDTC": "2013-03-08",
      "VISNUMEN": 4.0,
      "RFENDT": 19425.0,
      "DCDECOD": "ADVERSE EVENT",
      "EOSSTT": "DISCONTINUED",
      "DCSREAS": "Adverse Event",
      "MMSETOT": 18.0
    },
    {
      "STUDYID": "CDISCPILOT01",
      "USUBJID": "01-710-1002",
      "SUBJID": "1002",
      "SITEID": "710",
      "SITEGR1": "710",
      "ARM": "Xanomeline Low Dose",
      "TRT01P": "Xanomeline Low Dose",
      "TRT01PN": 54.0,
      "TRT01A": "Xanomeline Low Dose",
      "TRT01AN": 54.0,
      "TRTSDT": 19737.0,
      "TRTEDT": 19741.0,
      "TRTDURD": 5.0,
      "AVGDD": 54.0,
      "CUMDOSE": 270.0,
      "AGE": 88.0,
      "AGEGR1": ">80",
      "AGEGR1N": 3.0,
      "AGEU": "YEARS",
      "RACE": "WHITE",
      "RACEN": 1.0,
      "SEX": "M",
      "ETHNIC": "NOT HISPANIC OR LATINO",
      "SAFFL": "Y",
      "ITTFL": "Y",
      "EFFFL": "Y",
      "COMP8FL": "N",
      "COMP16FL": "N",
      "COMP24FL": "N",
      "DISCONFL": "Y",
      "DSRAEFL": "Y",
      "DTHFL": "",
      "BMIBL": 25.8,
      "BMIBLGR1": "25-<30",
      "HEIGHTBL": 165.1,
      "WEIGHTBL": 70.3,
      "EDUCLVL": 12.0,
      "DISONSDT": 17539.0,
      "DURDIS": 71.8,
      "DURDSGR1": ">=12",
      "VISIT1DT": 19722.0,
      "RFSTDTC": "2014-01-14",
      "RFENDTC": "2014-01-18",
      "VISNUMEN": 4.0,
      "RFENDT": 19741.0,
      "DCDECOD": "ADVERSE EVENT",
      "EOSSTT": "DISCONTINUED",
      "DCSREAS": "Adverse Event",
      "MMSETOT": 17.0
    },
    {
      "STUDYID": "CDISCPILOT01",
      "USUBJID": "01-710-1006",
      "SUBJID": "1006",
      "SITEID": "710",
      "SITEGR1": "710",
      "ARM": "Xanomeline High Dose",
      "TRT01P": "Xanomeline High Dose",
      "TRT01PN": 81.0,
      "TRT01A": "Xanomeline High Dose",
      "TRT01AN": 81.0,
      "TRTSDT": 19399.0,
      "TRTEDT": 19579.0,
      "TRTDURD": 181.0,
      "AVGDD": 77.1,
      "CUMDOSE": 13959.0,
      "AGE": 77.0,
      "AGEGR1": "65-80",
      "AGEGR1N": 2.0,
      "AGEU": "YEARS",
      "RACE": "WHITE",
      "RACEN": 1.0,
      "SEX": "M",
      "ETHNIC": "NOT HISPANIC OR LATINO",
      "SAFFL": "Y",
      "ITTFL": "Y",
      "EFFFL": "Y",
      "COMP8FL": "Y",
      "COMP16FL": "Y",
      "COMP24FL": "Y",
      "DISCONFL": "",
      "DSRAEFL": "",
      "DTHFL": "",
      "BMIBL": 25.1,
      "BMIBLGR1": "25-<30",
      "HEIGHTBL": 170.2,
      "WEIGHTBL": 72.6,
      "EDUCLVL": 12.0,
      "DISONSDT": 19033.0,
      "DURDIS": 11.6,
      "DURDSGR1": "<12",
      "VISIT1DT": 19385.0,
      "RFSTDTC": "2013-02-10",
      "RFENDTC": "2013-08-10",
      "VISNUMEN": 12.0,
      "RFENDT": 19580.0,
      "DCDECOD": "COMPLETED",
      "EOSSTT": "COMPLETED",
      "DCSREAS": "",
      "MMSETOT": 12.0
    },
    {
      "STUDYID": "CDISCPILOT01",
      "USUBJID": "01-710-1021",
      "SUBJID": "1021",
      "SITEID": "710",
      "SITEGR1": "710",
      "ARM": "Xanomeline High Dose",
      "TRT01P": "Xanomeline High Dose",
      "TRT01PN": 81.0,
      "TRT01A": "Xanomeline High Dose",
      "TRT01AN": 81.0,
      "TRTSDT": 19628.0,
      "TRTEDT": 19660.0,
      "TRTDURD": 33.0,
      "AVGDD": 68.7,
      "CUMDOSE": 2268.0,
      "AGE": 79.0,
      "AGEGR1": "65-80",
      "AGEGR1N": 2.0,
      "AGEU": "YEARS",
      "RACE": "BLACK OR AFRICAN AMERICAN",
      "RACEN": 2.0,
      "SEX": "M",
      "ETHNIC": "NOT HISPANIC OR LATINO",
      "SAFFL": "Y",
      "ITTFL": "Y",
      "EFFFL": "N",
      "COMP8FL": "N",
      "COMP16FL": "N",
      "COMP24FL": "N",
      "DISCONFL": "Y",
      "DSRAEFL": "Y",
      "DTHFL": "",
      "BMIBL": 21.3,
      "BMIBLGR1": "<25",
      "HEIGHTBL": 162.6,
      "WEIGHTBL": 56.3,
      "EDUCLVL": 8.0,
      "DISONSDT": 19183.0,
      "DURDIS": 14.4,
      "DURDSGR1": ">=12",
      "VISIT1DT": 19620.0,
      "RFSTDTC": "2013-09-27",
      "RFENDTC": "2013-11-12",
      "VISNUMEN": 7.0,
      "RFENDT": 19674.0,
      "DCDECOD": "ADVERSE EVENT",
