{
  "name": "ADTTE",
  "total_rows": 254,
  "unique_subjects": 254,
  "columns": [
    {
      "name": "STUDYID",
      "type": "string"
    },
    {
      "name": "SITEID",
      "type": "string"
    },
    {
      "name": "USUBJID",
      "type": "string"
    },
    {
      "name": "AGE",
      "type": "number"
    },
    {
      "name": "AGEGR1",
      "type": "string"
    },
    {
      "name": "AGEGR1N",
      "type": "number"
    },
    {
      "name": "RACE",
      "type": "string"
    },
    {
      "name": "RACEN",
      "type": "number"
    },
    {
      "name": "SEX",
      "type": "string"
    },
    {
      "name": "TRTSDT",
      "type": "number"
    },
    {
      "name": "TRTEDT",
      "type": "number"
    },
    {
      "name": "TRTDUR",
      "type": "number"
    },
    {
      "name": "TRTP",
      "type": "string"
    },
    {
      "name": "TRTA",
      "type": "string"
    },
    {
      "name": "TRTAN",
      "type": "number"
    },
    {
      "name": "PARAM",
      "type": "string"
    },
    {
      "name": "PARAMCD",
      "type": "string"
    },
    {
      "name": "AVAL",
      "type": "number"
    },
    {
      "name": "STARTDT",
      "type": "number"
    },
    {
      "name": "ADT",
      "type": "number"
    },
    {
      "name": "CNSR",
      "type": "number"
    },
    {
      "name": "EVNTDESC",
      "type": "string"
    },
    {
      "name": "SRCDOM",
      "type": "string"
    },
    {
      "name": "SRCVAR",
      "type": "string"
    },
    {
      "name": "SRCSEQ",
      "type": "number"
    },
    {
      "name": "SAFFL",
      "type": "string"
    }
  ],
  "rows": [
    {
      "STUDYID": "CDISCPILOT01",
      "SITEID": "701",
      "USUBJID": "01-701-1015",
      "AGE": 63.0,
      "AGEGR1": "<65",
      "AGEGR1N": 1.0,
      "RACE": "WHITE",
      "RACEN": 1.0,
      "SEX": "F",
      "TRTSDT": 19725.0,
      "TRTEDT": 19906.0,
      "TRTDUR": 182.0,
      "TRTP": "Placebo",
      "TRTA": "Placebo",
      "TRTAN": 5.397605346934028e-79,
      "PARAM": "Time to First Dermatologic Event",
      "PARAMCD": "TTDE",
      "AVAL": 2.0,
      "STARTDT": 19725.0,
      "ADT": 19726.0,
      "CNSR": 5.397605346934028e-79,
      "EVNTDESC": "Dematologic Event Occured",
      "SRCDOM": "ADAE",
      "SRCVAR": "ASTDT",
      "SRCSEQ": 1.0,
      "SAFFL": "Y"
    },
    {
      "STUDYID": "CDISCPILOT01",
      "SITEID": "701",
      "USUBJID": "01-701-1023",
      "AGE": 64.0,
      "AGEGR1": "<65",
      "AGEGR1N": 1.0,
      "RACE": "WHITE",
      "RACEN": 1.0,
      "SEX": "M",
      "TRTSDT": 19210.0,
      "TRTEDT": 19237.0,
      "TRTDUR": 28.0,
      "TRTP": "Placebo",
      "TRTA": "Placebo",
      "TRTAN": 5.397605346934028e-79,
      "PARAM": "Time to First Dermatologic Event",
      "PARAMCD": "TTDE",
      "AVAL": 3.0,
      "STARTDT": 19210.0,
      "ADT": 19212.0,
      "CNSR": 5.397605346934028e-79,
      "EVNTDESC": "Dematologic Event Occured",
      "SRCDOM": "ADAE",
      "SRCVAR": "ASTDT",
      "SRCSEQ": 1.0,
      "SAFFL": "Y"
    },
    {
      "STUDYID": "CDISCPILOT01",
      "SITEID": "701",
      "USUBJID": "01-701-1028",
      "AGE": 71.0,
      "AGEGR1": "65-80",
      "AGEGR1N": 2.0,
      "RACE": "WHITE",
      "RACEN": 1.0,
      "SEX": "M",
      "TRTSDT": 19558.0,
      "TRTEDT": 19737.0,
      "TRTDUR": 180.0,
      "TRTP": "Xanomeline High Dose",
      "TRTA": "Xanomeline High Dose",
      "TRTAN": 81.0,
      "PARAM": "Time to First Dermatologic Event",
      "PARAMCD": "TTDE",
      "AVAL": 3.0,
      "STARTDT": 19558.0,
      "ADT": 19560.0,
      "CNSR": 5.397605346934028e-79,
      "EVNTDESC": "Dematologic Event Occured",
      "SRCDOM": "ADAE",
      "SRCVAR": "ASTDT",
      "SRCSEQ": 1.0,
      "SAFFL": "Y"
    },
    {
      "STUDYID": "CDISCPILOT01",
      "SITEID": "701",
      "USUBJID": "01-701-1033",
      "AGE": 74.0,
      "AGEGR1": "65-80",
      "AGEGR1N": 2.0,
      "RACE": "WHITE",
      "RACEN": 1.0,
      "SEX": "M",
      "TRTSDT": 19800.0,
      "TRTEDT": 19813.0,
      "TRTDUR": 14.0,
      "TRTP": "Xanomeline Low Dose",
      "TRTA": "Xanomeline Low Dose",
      "TRTAN": 54.0,
      "PARAM": "Time to First Dermatologic Event",
      "PARAMCD": "TTDE",
      "AVAL": 28.0,
      "STARTDT": 19800.0,
      "ADT": 19827.0,
      "CNSR": 1.0,
      "EVNTDESC": "Study Completion Date",
      "SRCDOM": "ADSL",
      "SRCVAR": "RFENDT",
      "SRCSEQ": null,
      "SAFFL": "Y"
    },
    {
      "STUDYID": "CDISCPILOT01",
      "SITEID": "701",
      "USUBJID": "01-701-1034",
      "AGE": 77.0,
      "AGEGR1": "65-80",
      "AGEGR1N": 2.0,
      "RACE": "WHITE",
      "RACEN": 1.0,
      "SEX": "F",
      "TRTSDT": 19905.0,
      "TRTEDT": 20087.0,
      "TRTDUR": 183.0,
      "TRTP": "Xanomeline High Dose",
      "TRTA": "Xanomeline High Dose",
      "TRTAN": 81.0,
      "PARAM": "Time to First Dermatologic Event",
      "PARAMCD": "TTDE",
      "AVAL": 58.0,
      "STARTDT": 19905.0,
      "ADT": 19962.0,
      "CNSR": 5.397605346934028e-79,
      "EVNTDESC": "Dematologic Event Occured",
      "SRCDOM": "ADAE",
      "SRCVAR": "ASTDT",
      "SRCSEQ": 1.0,
      "SAFFL": "Y"
    },
    {
      "STUDYID": "CDISCPILOT01",
      "SITEID": "701",
      "USUBJID": "01-701-1047",
      "AGE": 85.0,
      "AGEGR1": ">80",
      "AGEGR1N": 3.0,
      "RACE": "WHITE",
      "RACEN": 1.0,
      "SEX": "F",
      "TRTSDT": 19401.0,
      "TRTEDT": 19426.0,
      "TRTDUR": 26.0,
      "TRTP": "Placebo",
      "TRTA": "Placebo",
      "TRTAN": 5.397605346934028e-79,
      "PARAM": "Time to First Dermatologic Event",
      "PARAMCD": "TTDE",
      "AVAL": 46.0,
      "STARTDT": 19401.0,
      "ADT": 19446.0,
      "CNSR": 1.0,
      "EVNTDESC": "Study Completion Date",
      "SRCDOM": "ADSL",
      "SRCVAR": "RFENDT",
      "SRCSEQ": null,
      "SAFFL": "Y"
    },
    {
      "STUDYID": "CDISCPILOT01",
      "SITEID": "701",
      "USUBJID": "01-701-1097",
      "AGE": 68.0,
      "AGEGR1": "65-80",
      "AGEGR1N": 2.0,
      "RACE": "WHITE",
      "RACEN": 1.0,
      "SEX": "M",
      "TRTSDT": 19724.0,
      "TRTEDT": 19913.0,
      "TRTDUR": 190.0,
      "TRTP": "Xanomeline Low Dose",
      "TRTA": "Xanomeline Low Dose",
      "TRTAN": 54.0,
      "PARAM": "Time to First Dermatologic Event",
      "PARAMCD": "TTDE",
      "AVAL": 3.0,
      "STARTDT": 19724.0,
      "ADT": 19726.0,
      "CNSR": 5.397605346934028e-79,
      "EVNTDESC": "Dematologic Event Occured",
      "SRCDOM": "ADAE",
      "SRCVAR": "ASTDT",
      "SRCSEQ": 1.0,
      "SAFFL": "Y"
    },
    {
      "STUDYID": "CDISCPILOT01",
      "SITEID": "701",
      "USUBJID": "01-701-1111",
      "AGE": 81.0,
      "AGEGR1": ">80",
      "AGEGR1N": 3.0,
      "RACE": "WHITE",
      "RACEN": 1.0,
      "SEX": "F",
      "TRTSDT": 19243.0,
      "TRTEDT": 19252.0,
      "TRTDUR": 10.0,
      "TRTP": "Xanomeline Low Dose",
      "TRTA": "Xanomeline Low Dose",
      "TRTAN": 54.0,
      "PARAM": "Time to First Dermatologic Event",
      "PARAMCD": "TTDE",
      "AVAL": 11.0,
      "STARTDT": 19243.0,
      "ADT": 19253.0,
      "CNSR": 1.0,
      "EVNTDESC": "Study Completion Date",
      "SRCDOM": "ADSL",
      "SRCVAR": "RFENDT",
      "SRCSEQ": null,
      "SAFFL": "Y"
    },
    {
      "STUDYID": "CDISCPILOT01",
      "SITEID": "701",
      "USUBJID": "01-701-1115",
      "AGE": 84.0,
      "AGEGR1": ">80",
      "AGEGR1N": 3.0,
      "RACE": "WHITE",
      "RACEN": 1.0,
      "SEX": "M",
      "TRTSDT": 19327.0,
      "TRTEDT": 19381.0,
      "TRTDUR": 55.0,
      "TRTP": "Xanomeline Low Dose",
      "TRTA": "Xanomeline Low Dose",
      "TRTAN": 54.0,
      "PARAM": "Time to First Dermatologic Event",
      "PARAMCD": "TTDE",
      "AVAL": 3.0,
      "STARTDT": 19327.0,
      "ADT": 19329.0,
      "CNSR": 5.397605346934028e-79,
      "EVNTDESC": "Dematologic Event Occured",
      "SRCDOM": "ADAE",
      "SRCVAR": "ASTDT",
      "SRCSEQ": 1.0,
      "SAFFL": "Y"
    },
    {
      "STUDYID": "CDISCPILOT01",
      "SITEID": "701",
      "USUBJID": "01-701-1118",
      "AGE": 52.0,
      "AGEGR1": "<65",
      "AGEGR1N": 1.0,
      "RACE": "WHITE",
      "RACEN": 1.0,
      "SEX": "M",
      "TRTSDT": 19794.0,
      "TRTEDT": 19975.0,
      "TRTDUR": 182.0,
      "TRTP": "Placebo",
      "TRTA": "Placebo",
      "TRTAN": 5.397605346934028e-79,
      "PARAM": "Time to First Dermatologic Event",
      "PARAMCD": "TTDE",
      "AVAL": 182.0,
      "STARTDT": 19794.0,
      "ADT": 19975.0,
      "CNSR": 1.0,
      "EVNTDESC": "Study Completion Date",
      "SRCDOM": "ADSL",
      "SRCVAR": "RFENDT",
      "SRCSEQ": null,
      "SAFFL": "Y"
    },
    {
      "STUDYID": "CDISCPILOT01",
      "SITEID": "701",
      "USUBJID": "01-701-1130",
      "AGE": 84.0,
      "AGEGR1": ">80",
      "AGEGR1N": 3.0,
      "RACE": "WHITE",
      "RACEN": 1.0,
      "SEX": "M",
      "TRTSDT": 19769.0,
      "TRTEDT": 19951.0,
      "TRTDUR": 183.0,
      "TRTP": "Placebo",
      "TRTA": "Placebo",
      "TRTAN": 5.397605346934028e-79,
      "PARAM": "Time to First Dermatologic Event",
      "PARAMCD": "TTDE",
      "AVAL": 97.0,
      "STARTDT": 19769.0,
      "ADT": 19865.0,
      "CNSR": 5.397605346934028e-79,
      "EVNTDESC": "Dematologic Event Occured",
      "SRCDOM": "ADAE",
      "SRCVAR": "ASTDT",
      "SRCSEQ": 7.0,
      "SAFFL": "Y"
    },
    {
      "STUDYID": "CDISCPILOT01",
      "SITEID": "701",
      "USUBJID": "01-701-1133",
      "AGE": 81.0,
      "AGEGR1": ">80",
      "AGEGR1N": 3.0,
      "RACE": "WHITE",
      "RACEN": 1.0,
      "SEX": "F",
      "TRTSDT": 19294.0,
      "TRTEDT": 19476.0,
      "TRTDUR": 183.0,
      "TRTP": "Xanomeline High Dose",
      "TRTA": "Xanomeline High Dose",
      "TRTAN": 81.0,
      "PARAM": "Time to First Dermatologic Event",
      "PARAMCD": "TTDE",
      "AVAL": 61.0,
      "STARTDT": 19294.0,
      "ADT": 19354.0,
      "CNSR": 5.397605346934028e-79,
      "EVNTDESC": "Dematologic Event Occured",
      "SRCDOM": "ADAE",
      "SRCVAR": "ASTDT",
      "SRCSEQ": 1.0,
      "SAFFL": "Y"
    },
    {
      "STUDYID": "CDISCPILOT01",
      "SITEID": "701",
      "USUBJID": "01-701-1146",
      "AGE": 75.0,
      "AGEGR1": "65-80",
      "AGEGR1N": 2.0,
      "RACE": "WHITE",
      "RACEN": 1.0,
      "SEX": "F",
      "TRTSDT": 19498.0,
      "TRTEDT": 19535.0,
      "TRTDUR": 38.0,
      "TRTP": "Xanomeline High Dose",
      "TRTA": "Xanomeline High Dose",
      "TRTAN": 81.0,
      "PARAM": "Time to First Dermatologic Event",
      "PARAMCD": "TTDE",
      "AVAL": 13.0,
      "STARTDT": 19498.0,
      "ADT": 19510.0,
      "CNSR": 5.397605346934028e-79,
      "EVNTDESC": "Dematologic Event Occured",
      "SRCDOM": "ADAE",
      "SRCVAR": "ASTDT",
      "SRCSEQ": 3.0,
      "SAFFL": "Y"
    },
    {
      "STUDYID": "CDISCPILOT01",
      "SITEID": "701",
      "USUBJID": "01-701-1148",
      "AGE": 57.0,
      "AGEGR1": "<65",
      "AGEGR1N": 1.0,
      "RACE": "WHITE",
      "RACEN": 1.0,
      "SEX": "M",
      "TRTSDT": 19593.0,
      "TRTEDT": 19774.0,
      "TRTDUR": 182.0,
      "TRTP": "Xanomeline High Dose",
      "TRTA": "Xanomeline High Dose",
      "TRTAN": 81.0,
      "PARAM": "Time to First Dermatologic Event",
      "PARAMCD": "TTDE",
      "AVAL": 3.0,
      "STARTDT": 19593.0,
      "ADT": 19595.0,
      "CNSR": 5.397605346934028e-79,
      "EVNTDESC": "Dematologic Event Occured",
      "SRCDOM": "ADAE",
      "SRCVAR": "ASTDT",
      "SRCSEQ": 1.0,
      "SAFFL": "Y"
    },
    {
      "STUDYID": "CDISCPILOT01",
      "SITEID": "701",
      "USUBJID": "01-701-1153",
      "AGE": 79.0,
      "AGEGR1": "65-80",
      "AGEGR1N": 2.0,
      "RACE": "WHITE",
      "RACEN": 1.0,
      "SEX": "F",
      "TRTSDT": 19624.0,
      "TRTEDT": 19798.0,
      "TRTDUR": 175.0,
      "TRTP": "Placebo",
      "TRTA": "Placebo",
      "TRTAN": 5.397605346934028e-79,
      "PARAM": "Time to First Dermatologic Event",
      "PARAMCD": "TTDE",
      "AVAL": 191.0,
      "STARTDT": 19624.0,
      "ADT": 19814.0,
      "CNSR": 1.0,
      "EVNTDESC": "Study Completion Date",
      "SRCDOM": "ADSL",
      "SRCVAR": "RFENDT",
      "SRCSEQ": null,
      "SAFFL": "Y"
    },
    {
      "STUDYID": "CDISCPILOT01",
      "SITEID": "701",
      "USUBJID": "01-701-1180",
      "AGE": 56.0,
      "AGEGR1": "<65",
      "AGEGR1N": 1.0,
      "RACE": "WHITE",
      "RACEN": 1.0,
      "SEX": "M",
      "TRTSDT": 19401.0,
      "TRTEDT": 19435.0,
      "TRTDUR": 35.0,
      "TRTP": "Xanomeline High Dose",
      "TRTA": "Xanomeline High Dose",
      "TRTAN": 81.0,
      "PARAM": "Time to First Dermatologic Event",
      "PARAMCD": "TTDE",
      "AVAL": 36.0,
      "STARTDT": 19401.0,
      "ADT": 19436.0,
      "CNSR": 5.397605346934028e-79,
      "EVNTDESC": "Dematologic Event Occured",
      "SRCDOM": "ADAE",
      "SRCVAR": "ASTDT",
      "SRCSEQ": 7.0,
      "SAFFL": "Y"
    },
    {
      "STUDYID": "CDISCPILOT01",
      "SITEID": "701",
      "USUBJID": "01-701-1181",
      "AGE": 79.0,
      "AGEGR1": "65-80",
      "AGEGR1N": 2.0,
      "RACE": "WHITE",
      "RACEN": 1.0,
      "SEX": "F",
      "TRTSDT": 19697.0,
      "TRTEDT": 19701.0,
      "TRTDUR": 5.0,
      "TRTP": "Xanomeline High Dose",
      "TRTA": "Xanomeline High Dose",
      "TRTAN": 81.0,
      "PARAM": "Time to First Dermatologic Event",
      "PARAMCD": "TTDE",
      "AVAL": 8.0,
      "STARTDT": 19697.0,
      "ADT": 19704.0,
      "CNSR": 1.0,
      "EVNTDESC": "Study Completion Date",
      "SRCDOM": "ADSL",
      "SRCVAR": "RFENDT",
      "SRCSEQ": null,
      "SAFFL": "Y"
    },
    {
      "STUDYID": "CDISCPILOT01",
      "SITEID": "701",
      "USUBJID": "01-701-1188",
      "AGE": 71.0,
      "AGEGR1": "65-80",
      "AGEGR1N": 2.0,
      "RACE": "WHITE",
      "RACEN": 1.0,
      "SEX": "M",
      "TRTSDT": 19404.0,
      "TRTEDT": 19441.0,
      "TRTDUR": 38.0,
      "TRTP": "Xanomeline Low Dose",
      "TRTA": "Xanomeline Low Dose",
      "TRTAN": 54.0,
      "PARAM": "Time to First Dermatologic Event",
      "PARAMCD": "TTDE",
      "AVAL": 2.0,
      "STARTDT": 19404.0,
      "ADT": 19405.0,
      "CNSR": 5.397605346934028e-79,
      "EVNTDESC": "Dematologic Event Occured",
      "SRCDOM": "ADAE",
      "SRCVAR": "ASTDT",
      "SRCSEQ": 1.0,
      "SAFFL": "Y"
    },
    {
      "STUDYID": "CDISCPILOT01",
      "SITEID": "701",
      "USUBJID": "01-701-1192",
      "AGE": 80.0,
      "AGEGR1": "65-80",
      "AGEGR1N": 2.0,
      "RACE": "WHITE",
      "RACEN": 1.0,
      "SEX": "F",
      "TRTSDT": 19196.0,
      "TRTEDT": 19378.0,
      "TRTDUR": 183.0,
      "TRTP": "Xanomeline Low Dose",
      "TRTA": "Xanomeline Low Dose",
      "TRTAN": 54.0,
      "PARAM": "Time to First Dermatologic Event",
      "PARAMCD": "TTDE",
      "AVAL": 17.0,
      "STARTDT": 19196.0,
      "ADT": 19212.0,
      "CNSR": 5.397605346934028e-79,
      "EVNTDESC": "Dematologic Event Occured",
      "SRCDOM": "ADAE",
      "SRCVAR": "ASTDT",
      "SRCSEQ": 3.0,
      "SAFFL": "Y"
    },
    {
      "STUDYID": "CDISCPILOT01",
      "SITEID": "701",
      "USUBJID": "01-701-1203",
      "AGE": 81.0,
      "AGEGR1": ">80",
      "AGEGR1N": 3.0,
      "RACE": "BLACK OR AFRICAN AMERICAN",
      "RACEN": 2.0,
      "SEX": "F",
      "TRTSDT": 19391.0,
      "TRTEDT": 19573.0,
      "TRTDUR": 183.0,
      "TRTP": "Placebo",
      "TRTA": "Placebo",
      "TRTAN": 5.397605346934028e-79,
      "PARAM": "Time to First Dermatologic Event",
      "PARAMCD": "TTDE",
      "AVAL": 183.0,
      "STARTDT": 19391.0,
      "ADT": 19573.0,
      "CNSR": 1.0,
      "EVNTDESC": "Study Completion Date",
      "SRCDOM": "ADSL",
      "SRCVAR": "RFENDT",
      "SRCSEQ": null,
      "SAFFL": "Y"
    },
    {
      "STUDYID": "CDISCPILOT01",
      "SITEID": "701",
      "USUBJID": "01-701-1211",
      "AGE": 76.0,
      "AGEGR1": "65-80",
      "AGEGR1N": 2.0,
      "RACE": "WHITE",
      "RACEN": 1.0,
      "SEX": "F",
      "TRTSDT": 19312.0,
      "TRTEDT": 19370.0,
      "TRTDUR": 59.0,
      "TRTP": "Xanomeline Low Dose",
      "TRTA": "Xanomeline Low Dose",
      "TRTAN": 54.0,
      "PARAM": "Time to First Dermatologic Event",
      "PARAMCD": "TTDE",
      "AVAL": 2.0,
      "STARTDT": 19312.0,
      "ADT": 19313.0,
      "CNSR": 5.397605346934028e-79,
      "EVNTDESC": "Dematologic Event Occured",
      "SRCDOM": "ADAE",
      "SRCVAR": "ASTDT",
      "SRCSEQ": 1.0,
      "SAFFL": "Y"
    },
    {
      "STUDYID": "CDISCPILOT01",
      "SITEID": "701",
      "USUBJID": "01-701-1234",
      "AGE": 69.0,
      "AGEGR1": "65-80",
      "AGEGR1N": 2.0,
      "RACE": "WHITE",
      "RACEN": 1.0,
      "SEX": "M",
      "TRTSDT": 19447.0,
      "TRTEDT": 19623.0,
      "TRTDUR": 177.0,
      "TRTP": "Placebo",
      "TRTA": "Placebo",
      "TRTAN": 5.397605346934028e-79,
      "PARAM": "Time to First Dermatologic Event",
      "PARAMCD": "TTDE",
      "AVAL": 177.0,
      "STARTDT": 19447.0,
      "ADT": 19623.0,
      "CNSR": 1.0,
      "EVNTDESC": "Study Completion Date",
      "SRCDOM": "ADSL",
      "SRCVAR": "RFENDT",
      "SRCSEQ": null,
      "SAFFL": "Y"
    },
    {
      "STUDYID": "CDISCPILOT01",
      "SITEID": "701",
      "USUBJID": "01-701-1239",
      "AGE": 56.0,
      "AGEGR1": "<65",
      "AGEGR1N": 1.0,
      "RACE": "WHITE",
      "RACEN": 1.0,
      "SEX": "M",
      "TRTSDT": 19734.0,
      "TRTEDT": 19914.0,
      "TRTDUR": 181.0,
      "TRTP": "Xanomeline High Dose",
      "TRTA": "Xanomeline High Dose",
      "TRTAN": 81.0,
      "PARAM": "Time to First Dermatologic Event",
      "PARAMCD": "TTDE",
      "AVAL": 2.0,
      "STARTDT": 19734.0,
      "ADT": 19735.0,
      "CNSR": 5.397605346934028e-79,
      "EVNTDESC": "Dematologic Event Occured",
      "SRCDOM": "ADAE",
      "SRCVAR": "ASTDT",
      "SRCSEQ": 1.0,
      "SAFFL": "Y"
    },
    {
      "STUDYID": "CDISCPILOT01",
      "SITEID": "701",
      "USUBJID": "01-701-1275",
      "AGE": 61.0,
      "AGEGR1": "<65",
      "AGEGR1N": 1.0,
      "RACE": "AMERICAN INDIAN OR ALASKA NATIVE",
      "RACEN": 6.0,
      "SEX": "M",
      "TRTSDT": 19761.0,
      "TRTEDT": 19874.0,
      "TRTDUR": 114.0,
      "TRTP": "Xanomeline High Dose",
      "TRTA": "Xanomeline High Dose",
      "TRTAN": 81.0,
      "PARAM": "Time to First Dermatologic Event",
      "PARAMCD": "TTDE",
      "AVAL": 18.0,
      "STARTDT": 19761.0,
      "ADT": 19778.0,
      "CNSR": 5.397605346934028e-79,
      "EVNTDESC": "Dematologic Event Occured",
      "SRCDOM": "ADAE",
      "SRCVAR": "ASTDT",
      "SRCSEQ": 3.0,
      "SAFFL": "Y"
    },
    {
      "STUDYID": "CDISCPILOT01",
      "SITEID": "701",
      "USUBJID": "01-701-1287",
      "AGE": 56.0,
      "AGEGR1": "<65",
      "AGEGR1N": 1.0,
      "RACE": "WHITE",
      "RACEN": 1.0,
      "SEX": "F",
      "TRTSDT": 19748.0,
      "TRTEDT": 19930.0,
      "TRTDUR": 183.0,
      "TRTP": "Xanomeline High Dose",
      "TRTA": "Xanomeline High Dose",
      "TRTAN": 81.0,
      "PARAM": "Time to First Dermatologic Event",
      "PARAMCD": "TTDE",
      "AVAL": 29.0,
      "STARTDT": 19748.0,
      "ADT": 19776.0,
      "CNSR": 5.397605346934028e-79,
      "EVNTDESC": "Dematologic Event Occured",
      "SRCDOM": "ADAE",
      "SRCVAR": "ASTDT",
      "SRCSEQ": 2.0,
      "SAFFL": "Y"
    },
    {
      "STUDYID": "CDISCPILOT01",
      "SITEID": "701",
      "USUBJID": "01-701-1294",
      "AGE": 67.0,
      "AGEGR1": "65-80",
      "AGEGR1N": 2.0,
      "RACE": "WHITE",
      "RACEN": 1.0,
      "SEX": "M",
      "TRTSDT": 19441.0,
      "TRTEDT": 19523.0,
      "TRTDUR": 83.0,
      "TRTP": "Xanomeline Low Dose",
      "TRTA": "Xanomeline Low Dose",
      "TRTAN": 54.0,
      "PARAM": "Time to First Dermatologic Event",
      "PARAMCD": "TTDE",
      "AVAL": 57.0,
      "STARTDT": 19441.0,
      "ADT": 19497.0,
      "CNSR": 5.397605346934028e-79,
      "EVNTDESC": "Dematologic Event Occured",
      "SRCDOM": "ADAE",
      "SRCVAR": "ASTDT",
      "SRCSEQ": 2.0,
      "SAFFL": "Y"
    },
    {
      "STUDYID": "CDISCPILOT01",
      "SITEID": "701",
      "USUBJID": "01-701-1302",
      "AGE": 61.0,
      "AGEGR1": "<65",
      "AGEGR1N": 1.0,
      "RACE": "WHITE",
      "RACEN": 1.0,
      "SEX": "M",
      "TRTSDT": 19599.0,
      "TRTEDT": 19667.0,
      "TRTDUR": 69.0,
      "TRTP": "Xanomeline High Dose",
      "TRTA": "Xanomeline High Dose",
      "TRTAN": 81.0,
      "PARAM": "Time to First Dermatologic Event",
      "PARAMCD": "TTDE",
      "AVAL": 2.0,
      "STARTDT": 19599.0,
      "ADT": 19600.0,
      "CNSR": 5.397605346934028e-79,
      "EVNTDESC": "Dematologic Event Occured",
      "SRCDOM": "ADAE",
      "SRCVAR": "ASTDT",
      "SRCSEQ": 1.0,
      "SAFFL": "Y"
    },
    {
      "STUDYID": "CDISCPILOT01",
      "SITEID": "701",
      "USUBJID": "01-701-1317",
      "AGE": 68.0,
      "AGEGR1": "65-80",
      "AGEGR1N": 2.0,
      "RACE": "WHITE",
      "RACEN": 1.0,
      "SEX": "M",
      "TRTSDT": 19865.0,
      "TRTEDT": 20047.0,
      "TRTDUR": 183.0,
      "TRTP": "Xanomeline Low Dose",
      "TRTA": "Xanomeline Low Dose",
      "TRTAN": 54.0,
      "PARAM": "Time to First Dermatologic Event",
      "PARAMCD": "TTDE",
      "AVAL": 33.0,
      "STARTDT": 19865.0,
      "ADT": 19897.0,
      "CNSR": 5.397605346934028e-79,
      "EVNTDESC": "Dematologic Event Occured",
      "SRCDOM": "ADAE",
      "SRCVAR": "ASTDT",
      "SRCSEQ": 3.0,
      "SAFFL": "Y"
    },
    {
      "STUDYID": "CDISCPILOT01",
      "SITEID": "701",
      "USUBJID": "01-701-1324",
      "AGE": 79.0,
      "AGEGR1": "65-80",
      "AGEGR1N": 2.0,
      "RACE": "WHITE",
      "RACEN": 1.0,
      "SEX": "M",
      "TRTSDT": 19268.0,
      "TRTEDT": 19450.0,
      "TRTDUR": 183.0,
      "TRTP": "Xanomeline Low Dose",
      "TRTA": "Xanomeline Low Dose",
      "TRTAN": 54.0,
      "PARAM": "Time to First Dermatologic Event",
      "PARAMCD": "TTDE",
      "AVAL": 21.0,
      "STARTDT": 19268.0,
      "ADT": 19288.0,
      "CNSR": 5.397605346934028e-79,
      "EVNTDESC": "Dematologic Event Occured",
      "SRCDOM": "ADAE",
      "SRCVAR": "ASTDT",
      "SRCSEQ": 1.0,
      "SAFFL": "Y"
    },
    {
      "STUDYID": "CDISCPILOT01",
      "SITEID": "701",
      "USUBJID": "01-701-1341",
      "AGE": 51.0,
      "AGEGR1": "<65",
      "AGEGR1N": 1.0,
      "RACE": "WHITE",
      "RACEN": 1.0,
      "SEX": "M",
      "TRTSDT": 19363.0,
      "TRTEDT": 19384.0,
      "TRTDUR": 22.0,
      "TRTP": "Xanomeline Low Dose",
      "TRTA": "Xanomeline Low Dose",
      "TRTAN": 54.0,
      "PARAM": "Time to First Dermatologic Event",
      "PARAMCD": "TTDE",
      "AVAL": 15.0,
      "STARTDT": 19363.0,
      "ADT": 19377.0,
      "CNSR": 5.397605346934028e-79,
      "EVNTDESC": "Dematologic Event Occured",
      "SRCDOM": "ADAE",
      "SRCVAR": "ASTDT",
      "SRCSEQ": 1.0,
      "SAFFL": "Y"
    },
    {
      "STUDYID": "CDISCPILOT01",
      "SITEID": "701",
      "USUBJID": "01-701-1345",
      "AGE": 63.0,
      "AGEGR1": "<65",
      "AGEGR1N": 1.0,
      "RACE": "WHITE",
      "RACEN": 1.0,
      "SEX": "F",
      "TRTSDT": 19639.0,
      "TRTEDT": 19800.0,
      "TRTDUR": 162.0,
      "TRTP": "Placebo",
      "TRTA": "Placebo",
      "TRTAN": 5.397605346934028e-79,
      "PARAM": "Time to First Dermatologic Event",
      "PARAMCD": "TTDE",
      "AVAL": 162.0,
      "STARTDT": 19639.0,
      "ADT": 19800.0,
      "CNSR": 1.0,
      "EVNTDESC": "Study Completion Date",
      "SRCDOM": "ADSL",
      "SRCVAR": "RFENDT",
      "SRCSEQ": null,
      "SAFFL": "Y"
    },
    {
      "STUDYID": "CDISCPILOT01",
      "SITEID": "701",
      "USUBJID": "01-701-1360",
      "AGE": 67.0,
      "AGEGR1": "65-80",
      "AGEGR1N": 2.0,
      "RACE": "WHITE",
      "RACEN": 1.0,
      "SEX": "M",
      "TRTSDT": 19570.0,
      "TRTEDT": 19575.0,
      "TRTDUR": 6.0,
      "TRTP": "Xanomeline High Dose",
      "TRTA": "Xanomeline High Dose",
      "TRTAN": 81.0,
      "PARAM": "Time to First Dermatologic Event",
      "PARAMCD": "TTDE",
      "AVAL": 3.0,
      "STARTDT": 19570.0,
      "ADT": 19572.0,
      "CNSR": 5.397605346934028e-79,
      "EVNTDESC": "Dematologic Event Occured",
      "SRCDOM": "ADAE",
      "SRCVAR": "ASTDT",
      "SRCSEQ": 1.0,
      "SAFFL": "Y"
    },
    {
      "STUDYID": "CDISCPILOT01",
      "SITEID": "701",
      "USUBJID": "01-701-1363",
      "AGE": 81.0,
      "AGEGR1": ">80",
      "AGEGR1N": 3.0,
      "RACE": "BLACK OR AFRICAN AMERICAN",
      "RACEN": 2.0,
      "SEX": "F",
      "TRTSDT": 19508.0,
      "TRTEDT": 19689.0,
      "TRTDUR": 182.0,
      "TRTP": "Placebo",
      "TRTA": "Placebo",
      "TRTAN": 5.397605346934028e-79,
      "PARAM": "Time to First Dermatologic Event",
      "PARAMCD": "TTDE",
      "AVAL": 48.0,
      "STARTDT": 19508.0,
      "ADT": 19555.0,
      "CNSR": 5.397605346934028e-79,
      "EVNTDESC": "Dematologic Event Occured",
      "SRCDOM": "ADAE",
      "SRCVAR": "ASTDT",
      "SRCSEQ": 3.0,
      "SAFFL": "Y"
    },
    {
      "STUDYID": "CDISCPILOT01",
      "SITEID": "701",
      "USUBJID": "01-701-1383",
      "AGE": 72.0,
      "AGEGR1": "65-80",
      "AGEGR1N": 2.0,
      "RACE": "WHITE",
      "RACEN": 1.0,
      "SEX": "F",
      "TRTSDT": 19393.0,
      "TRTEDT": 19576.0,
      "TRTDUR": 184.0,
      "TRTP": "Xanomeline High Dose",
      "TRTA": "Xanomeline High Dose",
      "TRTAN": 81.0,
      "PARAM": "Time to First Dermatologic Event",
      "PARAMCD": "TTDE",
      "AVAL": 4.0,
      "STARTDT": 19393.0,
      "ADT": 19396.0,
      "CNSR": 5.397605346934028e-79,
      "EVNTDESC": "Dematologic Event Occured",
      "SRCDOM": "ADAE",
      "SRCVAR": "ASTDT",
      "SRCSEQ": 1.0,
      "SAFFL": "Y"
    },
    {
      "STUDYID": "CDISCPILOT01",
      "SITEID": "701",
      "USUBJID": "01-701-1387",
      "AGE": 87.0,
      "AGEGR1": ">80",
      "AGEGR1N": 3.0,
      "RACE": "WHITE",
      "RACEN": 1.0,
      "SEX": "F",
      "TRTSDT": 19794.0,
      "TRTEDT": 19807.0,
      "TRTDUR": 14.0,
      "TRTP": "Placebo",
      "TRTA": "Placebo",
      "TRTAN": 5.397605346934028e-79,
      "PARAM": "Time to First Dermatologic Event",
      "PARAMCD": "TTDE",
      "AVAL": 14.0,
      "STARTDT": 19794.0,
      "ADT": 19807.0,
      "CNSR": 1.0,
      "EVNTDESC": "Study Completion Date",
      "SRCDOM": "ADSL",
      "SRCVAR": "RFENDT",
      "SRCSEQ": null,
      "SAFFL": "Y"
    },
    {
      "STUDYID": "CDISCPILOT01",
      "SITEID": "701",
      "USUBJID": "01-701-1392",
      "AGE": 78.0,
      "AGEGR1": "65-80",
      "AGEGR1N": 2.0,
      "RACE": "WHITE",
      "RACEN": 1.0,
      "SEX": "M",
      "TRTSDT": 19294.0,
      "TRTEDT": 19476.0,
      "TRTDUR": 183.0,
      "TRTP": "Placebo",
      "TRTA": "Placebo",
      "TRTAN": 5.397605346934028e-79,
      "PARAM": "Time to First Dermatologic Event",
      "PARAMCD": "TTDE",
      "AVAL": 183.0,
      "STARTDT": 19294.0,
      "ADT": 19476.0,
      "CNSR": 1.0,
      "EVNTDESC": "Study Completion Date",
      "SRCDOM": "ADSL",
      "SRCVAR": "RFENDT",
      "SRCSEQ": null,
      "SAFFL": "Y"
    },
    {
      "STUDYID": "CDISCPILOT01",
      "SITEID": "701",
      "USUBJID": "01-701-1415",
      "AGE": 85.0,
      "AGEGR1": ">80",
      "AGEGR1N": 3.0,
      "RACE": "WHITE",
      "RACEN": 1.0,
      "SEX": "M",
      "TRTSDT": 19624.0,
      "TRTEDT": 19806.0,
      "TRTDUR": 183.0,
      "TRTP": "Placebo",
      "TRTA": "Placebo",
      "TRTAN": 5.397605346934028e-79,
      "PARAM": "Time to First Dermatologic Event",
      "PARAMCD": "TTDE",
      "AVAL": 183.0,
      "STARTDT": 19624.0,
      "ADT": 19806.0,
      "CNSR": 1.0,
      "EVNTDESC": "Study Completion Date",
      "SRCDOM": "ADSL",
      "SRCVAR": "RFENDT",
      "SRCSEQ": null,
      "SAFFL": "Y"
    },
    {
      "STUDYID": "CDISCPILOT01",
      "SITEID": "701",
      "USUBJID": "01-701-1429",
      "AGE": 84.0,
      "AGEGR1": ">80",
      "AGEGR1N": 3.0,
      "RACE": "WHITE",
      "RACEN": 1.0,
      "SEX": "F",
      "TRTSDT": 19436.0,
      "TRTEDT": 19478.0,
      "TRTDUR": 43.0,
      "TRTP": "Xanomeline Low Dose",
      "TRTA": "Xanomeline Low Dose",
      "TRTAN": 54.0,
      "PARAM": "Time to First Dermatologic Event",
      "PARAMCD": "TTDE",
      "AVAL": 43.0,
      "STARTDT": 19436.0,
      "ADT": 19478.0,
      "CNSR": 1.0,
      "EVNTDESC": "Study Completion Date",
      "SRCDOM": "ADSL",
      "SRCVAR": "RFENDT",
      "SRCSEQ": null,
      "SAFFL": "Y"
    },
    {
      "STUDYID": "CDISCPILOT01",
      "SITEID": "701",
      "USUBJID": "01-701-1440",
      "AGE": 70.0,
      "AGEGR1": "65-80",
      "AGEGR1N": 2.0,
      "RACE": "WHITE",
      "RACEN": 1.0,
      "SEX": "M",
      "TRTSDT": 19578.0,
      "TRTEDT": 19759.0,
      "TRTDUR": 182.0,
      "TRTP": "Placebo",
      "TRTA": "Placebo",
      "TRTAN": 5.397605346934028e-79,
      "PARAM": "Time to First Dermatologic Event",
      "PARAMCD": "TTDE",
      "AVAL": 182.0,
      "STARTDT": 19578.0,
      "ADT": 19759.0,
      "CNSR": 1.0,
      "EVNTDESC": "Study Completion Date",
      "SRCDOM": "ADSL",
      "SRCVAR": "RFENDT",
      "SRCSEQ": null,
      "SAFFL": "Y"
    },
    {
      "STUDYID": "CDISCPILOT01",
      "SITEID": "701",
      "USUBJID": "01-701-1442",
      "AGE": 57.0,
      "AGEGR1": "<65",
      "AGEGR1N": 1.0,
      "RACE": "BLACK OR AFRICAN AMERICAN",
      "RACEN": 2.0,
      "SEX": "F",
      "TRTSDT": 19657.0,
      "TRTEDT": 19839.0,
      "TRTDUR": 183.0,
      "TRTP": "Xanomeline Low Dose",
      "TRTA": "Xanomeline Low Dose",
      "TRTAN": 54.0,
      "PARAM": "Time to First Dermatologic Event",
      "PARAMCD": "TTDE",
      "AVAL": 77.0,
      "STARTDT": 19657.0,
      "ADT": 19733.0,
      "CNSR": 5.397605346934028e-79,
      "EVNTDESC": "Dematologic Event Occured",
      "SRCDOM": "ADAE",
      "SRCVAR": "ASTDT",
      "SRCSEQ": 1.0,
      "SAFFL": "Y"
    },
    {
      "STUDYID": "CDISCPILOT01",
      "SITEID": "701",
      "USUBJID": "01-701-1444",
      "AGE": 63.0,
      "AGEGR1": "<65",
      "AGEGR1N": 1.0,
      "RACE": "WHITE",
      "RACEN": 1.0,
      "SEX": "M",
      "TRTSDT": 19363.0,
      "TRTEDT": 19401.0,
      "TRTDUR": 39.0,
      "TRTP": "Xanomeline High Dose",
      "TRTA": "Xanomeline High Dose",
      "TRTAN": 81.0,
      "PARAM": "Time to First Dermatologic Event",
      "PARAMCD": "TTDE",
      "AVAL": 15.0,
      "STARTDT": 19363.0,
      "ADT": 19377.0,
      "CNSR": 5.397605346934028e-79,
      "EVNTDESC": "Dematologic Event Occured",
      "SRCDOM": "ADAE",
      "SRCVAR": "ASTDT",
      "SRCSEQ": 1.0,
      "SAFFL": "Y"
    },
    {
      "STUDYID": "CDISCPILOT01",
      "SITEID": "702",
      "USUBJID": "01-702-1082",
      "AGE": 84.0,
      "AGEGR1": ">80",
      "AGEGR1N": 3.0,
      "RACE": "WHITE",
      "RACEN": 1.0,
      "SEX": "F",
      "TRTSDT": 19565.0,
      "TRTEDT": 19644.0,
      "TRTDUR": 80.0,
      "TRTP": "Xanomeline Low Dose",
      "TRTA": "Xanomeline Low Dose",
      "TRTAN": 54.0,
      "PARAM": "Time to First Dermatologic Event",
      "PARAMCD": "TTDE",
      "AVAL": 46.0,
      "STARTDT": 19565.0,
      "ADT": 19610.0,
      "CNSR": 5.397605346934028e-79,
      "EVNTDESC": "Dematologic Event Occured",
      "SRCDOM": "ADAE",
      "SRCVAR": "ASTDT",
      "SRCSEQ": 9.0,
      "SAFFL": "Y"
    },
    {
      "STUDYID": "CDISCPILOT01",
      "SITEID": "703",
      "USUBJID": "01-703-1042",
      "AGE": 64.0,
      "AGEGR1": "<65",
      "AGEGR1N": 1.0,
      "RACE": "WHITE",
      "RACEN": 1.0,
      "SEX": "M",
      "TRTSDT": 19419.0,
      "TRTEDT": 19601.0,
      "TRTDUR": 183.0,
      "TRTP": "Placebo",
      "TRTA": "Placebo",
      "TRTAN": 5.397605346934028e-79,
      "PARAM": "Time to First Dermatologic Event",
      "PARAMCD": "TTDE",
      "AVAL": 183.0,
      "STARTDT": 19419.0,
      "ADT": 19601.0,
      "CNSR": 1.0,
      "EVNTDESC": "Study Completion Date",
      "SRCDOM": "ADSL",
      "SRCVAR": "RFENDT",
      "SRCSEQ": null,
      "SAFFL": "Y"
    },
    {
      "STUDYID": "CDISCPILOT01",
      "SITEID": "703",
      "USUBJID": "01-703-1076",
      "AGE": 69.0,
      "AGEGR1": "65-80",
      "AGEGR1N": 2.0,
      "RACE": "WHITE",
      "RACEN": 1.0,
      "SEX": "M",
      "TRTSDT": 19656.0,
      "TRTEDT": 19716.0,
      "TRTDUR": 61.0,
      "TRTP": "Xanomeline High Dose",
      "TRTA": "Xanomeline High Dose",
      "TRTAN": 81.0,
      "PARAM": "Time to First Dermatologic Event",
      "PARAMCD": "TTDE",
      "AVAL": 30.0,
      "STARTDT": 19656.0,
      "ADT": 19685.0,
      "CNSR": 5.397605346934028e-79,
      "EVNTDESC": "Dematologic Event Occured",
      "SRCDOM": "ADAE",
      "SRCVAR": "ASTDT",
      "SRCSEQ": 4.0,
      "SAFFL": "Y"
    },
    {
      "STUDYID": "CDISCPILOT01",
      "SITEID": "703",
      "USUBJID": "01-703-1086",
      "AGE": 71.0,
      "AGEGR1": "65-80",
      "AGEGR1N": 2.0,
      "RACE": "WHITE",
      "RACEN": 1.0,
      "SEX": "M",
      "TRTSDT": 19238.0,
      "TRTEDT": 19331.0,
      "TRTDUR": 94.0,
      "TRTP": "Xanomeline Low Dose",
      "TRTA": "Xanomeline Low Dose",
      "TRTAN": 54.0,
      "PARAM": "Time to First Dermatologic Event",
      "PARAMCD": "TTDE",
      "AVAL": 12.0,
      "STARTDT": 19238.0,
      "ADT": 19249.0,
      "CNSR": 5.397605346934028e-79,
      "EVNTDESC": "Dematologic Event Occured",
      "SRCDOM": "ADAE",
      "SRCVAR": "ASTDT",
      "SRCSEQ": 1.0,
      "SAFFL": "Y"
    },
    {
      "STUDYID": "CDISCPILOT01",
      "SITEID": "703",
      "USUBJID": "01-703-1096",
      "AGE": 81.0,
      "AGEGR1": ">80",
      "AGEGR1N": 3.0,
      "RACE": "WHITE",
      "RACEN": 1.0,
      "SEX": "F",
      "TRTSDT": 19383.0,
      "TRTEDT": 19433.0,
      "TRTDUR": 51.0,
      "TRTP": "Placebo",
      "TRTA": "Placebo",
      "TRTAN": 5.397605346934028e-79,
      "PARAM": "Time to First Dermatologic Event",
      "PARAMCD": "TTDE",
      "AVAL": 64.0,
      "STARTDT": 19383.0,
      "ADT": 19446.0,
      "CNSR": 1.0,
      "EVNTDESC": "Study Completion Date",
      "SRCDOM": "ADSL",
      "SRCVAR": "RFENDT",
      "SRCSEQ": null,
      "SAFFL": "Y"
    },
    {
      "STUDYID": "CDISCPILOT01",
      "SITEID": "703",
      "USUBJID": "01-703-1100",
      "AGE": 84.0,
      "AGEGR1": ">80",
      "AGEGR1N": 3.0,
      "RACE": "WHITE",
      "RACEN": 1.0,
      "SEX": "F",
      "TRTSDT": 19430.0,
      "TRTEDT": 19615.0,
      "TRTDUR": 186.0,
      "TRTP": "Placebo",
      "TRTA": "Placebo",
      "TRTAN": 5.397605346934028e-79,
      "PARAM": "Time to First Dermatologic Event",
      "PARAMCD": "TTDE",
      "AVAL": 24.0,
      "STARTDT": 19430.0,
      "ADT": 19453.0,
      "CNSR": 5.397605346934028e-79,
      "EVNTDESC": "Dematologic Event Occured",
      "SRCDOM": "ADAE",
      "SRCVAR": "ASTDT",
      "SRCSEQ": 1.0,
      "SAFFL": "Y"
    },
    {
      "STUDYID": "CDISCPILOT01",
      "SITEID": "703",
      "USUBJID": "01-703-1119",
      "AGE": 81.0,
      "AGEGR1": ">80",
      "AGEGR1N": 3.0,
      "RACE": "WHITE",
      "RACEN": 1.0,
      "SEX": "F",
      "TRTSDT": 19409.0,
      "TRTEDT": 19522.0,
      "TRTDUR": 114.0,
      "TRTP": "Xanomeline Low Dose",
      "TRTA": "Xanomeline Low Dose",
      "TRTAN": 54.0,
      "PARAM": "Time to First Dermatologic Event",
      "PARAMCD": "TTDE",
      "AVAL": 25.0,
      "STARTDT": 19409.0,
      "ADT": 19433.0,
      "CNSR": 5.397605346934028e-79,
      "EVNTDESC": "Dematologic Event Occured",
      "SRCDOM": "ADAE",
      "SRCVAR": "ASTDT",
      "SRCSEQ": 1.0,
      "SAFFL": "Y"
    },
    {
      "STUDYID": "CDISCPILOT01",
      "SITEID": "703",
      "USUBJID": "01-703-1175",
      "AGE": 75.0,
      "AGEGR1": "65-80",
      "AGEGR1N": 2.0,
      "RACE": "WHITE",
      "RACEN": 1.0,
      "SEX": "M",
      "TRTSDT": 19712.0,
      "TRTEDT": 19718.0,
      "TRTDUR": 7.0,
      "TRTP": "Placebo",
      "TRTA": "Placebo",
      "TRTAN": 5.397605346934028e-79,
      "PARAM": "Time to First Dermatologic Event",
      "PARAMCD": "TTDE",
      "AVAL": 12.0,
      "STARTDT": 19712.0,
      "ADT": 19723.0,
      "CNSR": 1.0,
      "EVNTDESC": "Study Completion Date",
      "SRCDOM": "ADSL",
      "SRCVAR": "RFENDT",
      "SRCSEQ": null,
      "SAFFL": "Y"
    },
    {
      "STUDYID": "CDISCPILOT01",
      "SITEID": "703",
      "USUBJID": "01-703-1182",
      "AGE": 84.0,
      "AGEGR1": ">80",
      "AGEGR1N": 3.0,
      "RACE": "WHITE",
      "RACEN": 1.0,
      "SEX": "M",
      "TRTSDT": 19648.0,
      "TRTEDT": 19703.0,
      "TRTDUR": 56.0,
      "TRTP": "Xanomeline Low Dose",
      "TRTA": "Xanomeline Low Dose",
      "TRTAN": 54.0,
      "PARAM": "Time to First Dermatologic Event",
      "PARAMCD": "TTDE",
      "AVAL": 15.0,
      "STARTDT": 19648.0,
      "ADT": 19662.0,
      "CNSR": 5.397605346934028e-79,
      "EVNTDESC": "Dematologic Event Occured",
      "SRCDOM": "ADAE",
      "SRCVAR": "ASTDT",
      "SRCSEQ": 1.0,
      "SAFFL": "Y"
    },
    {
      "STUDYID": "CDISCPILOT01",
      "SITEID": "703",
      "USUBJID": "01-703-1197",
      "AGE": 76.0,
      "AGEGR1": "65-80",
      "AGEGR1N": 2.0,
      "RACE": "BLACK OR AFRICAN AMERICAN",
      "RACEN": 2.0,
      "SEX": "F",
      "TRTSDT": 19525.0,
      "TRTEDT": 19538.0,
      "TRTDUR": 14.0,
      "TRTP": "Xanomeline Low Dose",
      "TRTA": "Xanomeline Low Dose",
      "TRTAN": 54.0,
      "PARAM": "Time to First Dermatologic Event",
      "PARAMCD": "TTDE",
      "AVAL": 37.0,
      "STARTDT": 19525.0,
      "ADT": 19561.0,
      "CNSR": 1.0,
      "EVNTDESC": "Study Completion Date",
      "SRCDOM": "ADSL",
      "SRCVAR": "RFENDT",
      "SRCSEQ": null,
      "SAFFL": "Y"
    },
    {
      "STUDYID": "CDISCPILOT01",
      "SITEID": "703",
      "USUBJID": "01-703-1210",
      "AGE": 72.0,
      "AGEGR1": "65-80",
      "AGEGR1N": 2.0,
      "RACE": "WHITE",
      "RACEN": 1.0,
      "SEX": "F",
      "TRTSDT": 19433.0,
      "TRTEDT": 19607.0,
      "TRTDUR": 175.0,
      "TRTP": "Placebo",
      "TRTA": "Placebo",
      "TRTAN": 5.397605346934028e-79,
      "PARAM": "Time to First Dermatologic Event",
      "PARAMCD": "TTDE",
      "AVAL": 175.0,
      "STARTDT": 19433.0,
      "ADT": 19607.0,
      "CNSR": 1.0,
      "EVNTDESC": "Study Completion Date",
      "SRCDOM": "ADSL",
      "SRCVAR": "RFENDT",
      "SRCSEQ": null,
      "SAFFL": "Y"
    },
    {
      "STUDYID": "CDISCPILOT01",
      "SITEID": "703",
      "USUBJID": "01-703-1258",
      "AGE": 78.0,
      "AGEGR1": "65-80",
      "AGEGR1N": 2.0,
      "RACE": "WHITE",
      "RACEN": 1.0,
      "SEX": "F",
      "TRTSDT": 19194.0,
      "TRTEDT": 19369.0,
      "TRTDUR": 176.0,
      "TRTP": "Xanomeline High Dose",
      "TRTA": "Xanomeline High Dose",
      "TRTAN": 81.0,
      "PARAM": "Time to First Dermatologic Event",
      "PARAMCD": "TTDE",
      "AVAL": 47.0,
      "STARTDT": 19194.0,
      "ADT": 19240.0,
      "CNSR": 5.397605346934028e-79,
      "EVNTDESC": "Dematologic Event Occured",
      "SRCDOM": "ADAE",
      "SRCVAR": "ASTDT",
      "SRCSEQ": 4.0,
      "SAFFL": "Y"
    },
    {
      "STUDYID": "CDISCPILOT01",
      "SITEID": "703",
      "USUBJID": "01-703-1279",
      "AGE": 72.0,
      "AGEGR1": "65-80",
      "AGEGR1N": 2.0,
      "RACE": "WHITE",
      "RACEN": 1.0,
      "SEX": "F",
      "TRTSDT": 19491.0,
      "TRTEDT": 19512.0,
      "TRTDUR": 22.0,
      "TRTP": "Xanomeline Low Dose",
      "TRTA": "Xanomeline Low Dose",
      "TRTAN": 54.0,
      "PARAM": "Time to First Dermatologic Event",
      "PARAMCD": "TTDE",
      "AVAL": 41.0,
      "STARTDT": 19491.0,
      "ADT": 19531.0,
      "CNSR": 1.0,
      "EVNTDESC": "Study Completion Date",
      "SRCDOM": "ADSL",
      "SRCVAR": "RFENDT",
      "SRCSEQ": null,
      "SAFFL": "Y"
    },
    {
      "STUDYID": "CDISCPILOT01",
      "SITEID": "703",
      "USUBJID": "01-703-1295",
      "AGE": 88.0,
      "AGEGR1": ">80",
      "AGEGR1N": 3.0,
      "RACE": "WHITE",
      "RACEN": 1.0,
      "SEX": "F",
      "TRTSDT": 19683.0,
      "TRTEDT": 19832.0,
      "TRTDUR": 150.0,
      "TRTP": "Xanomeline High Dose",
      "TRTA": "Xanomeline High Dose",
      "TRTAN": 81.0,
      "PARAM": "Time to First Dermatologic Event",
      "PARAMCD": "TTDE",
      "AVAL": 180.0,
      "STARTDT": 19683.0,
      "ADT": 19862.0,
      "CNSR": 1.0,
      "EVNTDESC": "Study Completion Date",
      "SRCDOM": "ADSL",
      "SRCVAR": "RFENDT",
      "SRCSEQ": null,
      "SAFFL": "Y"
    },
    {
      "STUDYID": "CDISCPILOT01",
      "SITEID": "703",
      "USUBJID": "01-703-1299",
      "AGE": 81.0,
      "AGEGR1": ">80",
      "AGEGR1N": 3.0,
      "RACE": "WHITE",
      "RACEN": 1.0,
      "SEX": "F",
      "TRTSDT": 19248.0,
      "TRTEDT": 19430.0,
      "TRTDUR": 183.0,
      "TRTP": "Placebo",
      "TRTA": "Placebo",
      "TRTAN": 5.397605346934028e-79,
      "PARAM": "Time to First Dermatologic Event",
      "PARAMCD": "TTDE",
      "AVAL": 183.0,
      "STARTDT": 19248.0,
      "ADT": 19430.0,
      "CNSR": 1.0,
      "EVNTDESC": "Study Completion Date",
      "SRCDOM": "ADSL",
      "SRCVAR": "RFENDT",
      "SRCSEQ": null,
      "SAFFL": "Y"
    },
    {
      "STUDYID": "CDISCPILOT01",
      "SITEID": "703",
      "USUBJID": "01-703-1335",
      "AGE": 67.0,
      "AGEGR1": "65-80",
      "AGEGR1N": 2.0,
      "RACE": "BLACK OR AFRICAN AMERICAN",
      "RACEN": 2.0,
      "SEX": "F",
      "TRTSDT": 19799.0,
      "TRTEDT": 19850.0,
      "TRTDUR": 52.0,
      "TRTP": "Xanomeline High Dose",
      "TRTA": "Xanomeline High Dose",
      "TRTAN": 81.0,
      "PARAM": "Time to First Dermatologic Event",
      "PARAMCD": "TTDE",
      "AVAL": 69.0,
      "STARTDT": 19799.0,
      "ADT": 19867.0,
      "CNSR": 1.0,
      "EVNTDESC": "Study Completion Date",
      "SRCDOM": "ADSL",
      "SRCVAR": "RFENDT",
      "SRCSEQ": null,
      "SAFFL": "Y"
    },
    {
      "STUDYID": "CDISCPILOT01",
      "SITEID": "703",
      "USUBJID": "01-703-1379",
      "AGE": 81.0,
      "AGEGR1": ">80",
      "AGEGR1N": 3.0,
      "RACE": "BLACK OR AFRICAN AMERICAN",
      "RACEN": 2.0,
      "SEX": "F",
      "TRTSDT": 19623.0,
      "TRTEDT": 19803.0,
      "TRTDUR": 181.0,
      "TRTP": "Xanomeline Low Dose",
      "TRTA": "Xanomeline Low Dose",
      "TRTAN": 54.0,
      "PARAM": "Time to First Dermatologic Event",
      "PARAMCD": "TTDE",
      "AVAL": 181.0,
      "STARTDT": 19623.0,
      "ADT": 19803.0,
      "CNSR": 1.0,
      "EVNTDESC": "Study Completion Date",
      "SRCDOM": "ADSL",
      "SRCVAR": "RFENDT",
      "SRCSEQ": null,
      "SAFFL": "Y"
    },
    {
      "STUDYID": "CDISCPILOT01",
      "SITEID": "703",
      "USUBJID": "01-703-1403",
      "AGE": 67.0,
      "AGEGR1": "65-80",
      "AGEGR1N": 2.0,
      "RACE": "WHITE",
      "RACEN": 1.0,
      "SEX": "M",
      "TRTSDT": 19339.0,
      "TRTEDT": 19340.0,
      "TRTDUR": 2.0,
      "TRTP": "Xanomeline High Dose",
      "TRTA": "Xanomeline High Dose",
      "TRTAN": 81.0,
      "PARAM": "Time to First Dermatologic Event",
      "PARAMCD": "TTDE",
      "AVAL": 8.0,
      "STARTDT": 19339.0,
      "ADT": 19346.0,
      "CNSR": 1.0,
      "EVNTDESC": "Study Completion Date",
      "SRCDOM": "ADSL",
      "SRCVAR": "RFENDT",
      "SRCSEQ": null,
      "SAFFL": "Y"
    },
    {
      "STUDYID": "CDISCPILOT01",
      "SITEID": "703",
      "USUBJID": "01-703-1439",
      "AGE": 76.0,
      "AGEGR1": "65-80",
      "AGEGR1N": 2.0,
      "RACE": "WHITE",
      "RACEN": 1.0,
      "SEX": "F",
      "TRTSDT": 19794.0,
      "TRTEDT": 19977.0,
      "TRTDUR": 184.0,
      "TRTP": "Xanomeline High Dose",
      "TRTA": "Xanomeline High Dose",
      "TRTAN": 81.0,
      "PARAM": "Time to First Dermatologic Event",
      "PARAMCD": "TTDE",
      "AVAL": 44.0,
      "STARTDT": 19794.0,
      "ADT": 19837.0,
      "CNSR": 5.397605346934028e-79,
      "EVNTDESC": "Dematologic Event Occured",
      "SRCDOM": "ADAE",
      "SRCVAR": "ASTDT",
      "SRCSEQ": 1.0,
      "SAFFL": "Y"
    },
    {
      "STUDYID": "CDISCPILOT01",
      "SITEID": "704",
      "USUBJID": "01-704-1008",
      "AGE": 76.0,
      "AGEGR1": "65-80",
      "AGEGR1N": 2.0,
      "RACE": "WHITE",
      "RACEN": 1.0,
      "SEX": "F",
      "TRTSDT": 19371.0,
      "TRTEDT": 19410.0,
      "TRTDUR": 40.0,
      "TRTP": "Xanomeline High Dose",
      "TRTA": "Xanomeline High Dose",
      "TRTAN": 81.0,
      "PARAM": "Time to First Dermatologic Event",
      "PARAMCD": "TTDE",
      "AVAL": 44.0,
      "STARTDT": 19371.0,
      "ADT": 19414.0,
      "CNSR": 1.0,
      "EVNTDESC": "Study Completion Date",
      "SRCDOM": "ADSL",
      "SRCVAR": "RFENDT",
      "SRCSEQ": null,
      "SAFFL": "Y"
    },
    {
      "STUDYID": "CDISCPILOT01",
      "SITEID": "704",
      "USUBJID": "01-704-1009",
      "AGE": 83.0,
      "AGEGR1": ">80",
      "AGEGR1N": 3.0,
      "RACE": "WHITE",
      "RACEN": 1.0,
      "SEX": "M",
      "TRTSDT": 19597.0,
      "TRTEDT": 19626.0,
      "TRTDUR": 30.0,
      "TRTP": "Xanomeline Low Dose",
      "TRTA": "Xanomeline Low Dose",
      "TRTAN": 54.0,
      "PARAM": "Time to First Dermatologic Event",
      "PARAMCD": "TTDE",
      "AVAL": 19.0,
      "STARTDT": 19597.0,
      "ADT": 19615.0,
      "CNSR": 5.397605346934028e-79,
      "EVNTDESC": "Dematologic Event Occured",
      "SRCDOM": "ADAE",
      "SRCVAR": "ASTDT",
      "SRCSEQ": 3.0,
      "SAFFL": "Y"
    },
    {
      "STUDYID": "CDISCPILOT01",
      "SITEID": "704",
      "USUBJID": "01-704-1010",
      "AGE": 80.0,
      "AGEGR1": "65-80",
      "AGEGR1N": 2.0,
      "RACE": "WHITE",
      "RACEN": 1.0,
      "SEX": "M",
      "TRTSDT": 19775.0,
      "TRTEDT": 19912.0,
      "TRTDUR": 138.0,
      "TRTP": "Placebo",
      "TRTA": "Placebo",
      "TRTAN": 5.397605346934028e-79,
      "PARAM": "Time to First Dermatologic Event",
      "PARAMCD": "TTDE",
      "AVAL": 139.0,
      "STARTDT": 19775.0,
      "ADT": 19913.0,
      "CNSR": 1.0,
      "EVNTDESC": "Study Completion Date",
      "SRCDOM": "ADSL",
      "SRCVAR": "RFENDT",
      "SRCSEQ": null,
      "SAFFL": "Y"
    },
    {
      "STUDYID": "CDISCPILOT01",
      "SITEID": "704",
      "USUBJID": "01-704-1017",
      "AGE": 77.0,
      "AGEGR1": "65-80",
      "AGEGR1N": 2.0,
      "RACE": "WHITE",
      "RACEN": 1.0,
      "SEX": "M",
      "TRTSDT": 19637.0,
      "TRTEDT": 19680.0,
      "TRTDUR": 44.0,
      "TRTP": "Xanomeline High Dose",
      "TRTA": "Xanomeline High Dose",
      "TRTAN": 81.0,
      "PARAM": "Time to First Dermatologic Event",
      "PARAMCD": "TTDE",
      "AVAL": 31.0,
      "STARTDT": 19637.0,
      "ADT": 19667.0,
      "CNSR": 5.397605346934028e-79,
      "EVNTDESC": "Dematologic Event Occured",
      "SRCDOM": "ADAE",
      "SRCVAR": "ASTDT",
      "SRCSEQ": 5.0,
      "SAFFL": "Y"
    },
    {
      "STUDYID": "CDISCPILOT01",
      "SITEID": "704",
      "USUBJID": "01-704-1025",
      "AGE": 81.0,
      "AGEGR1": ">80",
      "AGEGR1N": 3.0,
      "RACE": "WHITE",
      "RACEN": 1.0,
      "SEX": "F",
      "TRTSDT": 19628.0,
      "TRTEDT": 19655.0,
      "TRTDUR": 28.0,
      "TRTP": "Xanomeline Low Dose",
      "TRTA": "Xanomeline Low Dose",
      "TRTAN": 54.0,
      "PARAM": "Time to First Dermatologic Event",
      "PARAMCD": "TTDE",
      "AVAL": 64.0,
      "STARTDT": 19628.0,
      "ADT": 19691.0,
      "CNSR": 1.0,
      "EVNTDESC": "Study Completion Date",
      "SRCDOM": "ADSL",
      "SRCVAR": "RFENDT",
      "SRCSEQ": null,
      "SAFFL": "Y"
    },
    {
      "STUDYID": "CDISCPILOT01",
      "SITEID": "704",
      "USUBJID": "01-704-1065",
      "AGE": 75.0,
      "AGEGR1": "65-80",
      "AGEGR1N": 2.0,
      "RACE": "WHITE",
      "RACEN": 1.0,
      "SEX": "M",
      "TRTSDT": 19655.0,
      "TRTEDT": 19714.0,
      "TRTDUR": 60.0,
      "TRTP": "Xanomeline High Dose",
      "TRTA": "Xanomeline High Dose",
      "TRTAN": 81.0,
      "PARAM": "Time to First Dermatologic Event",
      "PARAMCD": "TTDE",
      "AVAL": 4.0,
      "STARTDT": 19655.0,
      "ADT": 19658.0,
      "CNSR": 5.397605346934028e-79,
      "EVNTDESC": "Dematologic Event Occured",
      "SRCDOM": "ADAE",
      "SRCVAR": "ASTDT",
      "SRCSEQ": 2.0,
      "SAFFL": "Y"
    },
    {
      "STUDYID": "CDISCPILOT01",
      "SITEID": "704",
      "USUBJID": "01-704-1074",
      "AGE": 80.0,
      "AGEGR1": "65-80",
      "AGEGR1N": 2.0,
      "RACE": "WHITE",
      "RACEN": 1.0,
      "SEX": "F",
      "TRTSDT": 19745.0,
      "TRTEDT": 19802.0,
      "TRTDUR": 58.0,
      "TRTP": "Xanomeline High Dose",
      "TRTA": "Xanomeline High Dose",
      "TRTAN": 81.0,
      "PARAM": "Time to First Dermatologic Event",
      "PARAMCD": "TTDE",
      "AVAL": 1.0,
      "STARTDT": 19745.0,
      "ADT": 19745.0,
      "CNSR": 5.397605346934028e-79,
      "EVNTDESC": "Dematologic Event Occured",
      "SRCDOM": "ADAE",
      "SRCVAR": "ASTDT",
      "SRCSEQ": 1.0,
      "SAFFL": "Y"
    },
    {
      "STUDYID": "CDISCPILOT01",
      "SITEID": "704",
      "USUBJID": "01-704-1093",
      "AGE": 79.0,
      "AGEGR1": "65-80",
      "AGEGR1N": 2.0,
      "RACE": "WHITE",
      "RACEN": 1.0,
      "SEX": "M",
      "TRTSDT": 19432.0,
      "TRTEDT": 19526.0,
      "TRTDUR": 95.0,
      "TRTP": "Xanomeline High Dose",
      "TRTA": "Xanomeline High Dose",
      "TRTAN": 81.0,
      "PARAM": "Time to First Dermatologic Event",
      "PARAMCD": "TTDE",
      "AVAL": 51.0,
      "STARTDT": 19432.0,
      "ADT": 19482.0,
      "CNSR": 5.397605346934028e-79,
      "EVNTDESC": "Dematologic Event Occured",
      "SRCDOM": "ADAE",
      "SRCVAR": "ASTDT",
      "SRCSEQ": 3.0,
      "SAFFL": "Y"
    },
    {
      "STUDYID": "CDISCPILOT01",
      "SITEID": "704",
      "USUBJID": "01-704-1114",
      "AGE": 77.0,
      "AGEGR1": "65-80",
      "AGEGR1N": 2.0,
      "RACE": "WHITE",
      "RACEN": 1.0,
      "SEX": "M",
      "TRTSDT": 19381.0,
      "TRTEDT": 19546.0,
      "TRTDUR": 166.0,
      "TRTP": "Xanomeline Low Dose",
      "TRTA": "Xanomeline Low Dose",
      "TRTAN": 54.0,
      "PARAM": "Time to First Dermatologic Event",
      "PARAMCD": "TTDE",
      "AVAL": 30.0,
      "STARTDT": 19381.0,
      "ADT": 19410.0,
      "CNSR": 5.397605346934028e-79,
      "EVNTDESC": "Dematologic Event Occured",
      "SRCDOM": "ADAE",
      "SRCVAR": "ASTDT",
      "SRCSEQ": 1.0,
      "SAFFL": "Y"
    },
    {
      "STUDYID": "CDISCPILOT01",
      "SITEID": "704",
      "USUBJID": "01-704-1120",
      "AGE": 71.0,
      "AGEGR1": "65-80",
      "AGEGR1N": 2.0,
      "RACE": "WHITE",
      "RACEN": 1.0,
      "SEX": "F",
      "TRTSDT": 19694.0,
      "TRTEDT": 19755.0,
      "TRTDUR": 62.0,
      "TRTP": "Xanomeline Low Dose",
      "TRTA": "Xanomeline Low Dose",
      "TRTAN": 54.0,
      "PARAM": "Time to First Dermatologic Event",
      "PARAMCD": "TTDE",
      "AVAL": 22.0,
      "STARTDT": 19694.0,
      "ADT": 19715.0,
      "CNSR": 5.397605346934028e-79,
      "EVNTDESC": "Dematologic Event Occured",
      "SRCDOM": "ADAE",
      "SRCVAR": "ASTDT",
      "SRCSEQ": 1.0,
      "SAFFL": "Y"
    },
    {
      "STUDYID": "CDISCPILOT01",
      "SITEID": "704",
      "USUBJID": "01-704-1127",
      "AGE": 84.0,
      "AGEGR1": ">80",
      "AGEGR1N": 3.0,
      "RACE": "WHITE",
      "RACEN": 1.0,
      "SEX": "F",
      "TRTSDT": 19633.0,
      "TRTEDT": 19813.0,
      "TRTDUR": 181.0,
      "TRTP": "Placebo",
      "TRTA": "Placebo",
      "TRTAN": 5.397605346934028e-79,
      "PARAM": "Time to First Dermatologic Event",
      "PARAMCD": "TTDE",
      "AVAL": 181.0,
      "STARTDT": 19633.0,
      "ADT": 19813.0,
      "CNSR": 1.0,
      "EVNTDESC": "Study Completion Date",
      "SRCDOM": "ADSL",
      "SRCVAR": "RFENDT",
      "SRCSEQ": null,
      "SAFFL": "Y"
    },
    {
      "STUDYID": "CDISCPILOT01",
      "SITEID": "704",
      "USUBJID": "01-704-1135",
      "AGE": 74.0,
      "AGEGR1": "65-80",
      "AGEGR1N": 2.0,
      "RACE": "WHITE",
      "RACEN": 1.0,
      "SEX": "F",
      "TRTSDT": 19662.0,
      "TRTEDT": 19859.0,
      "TRTDUR": 198.0,
      "TRTP": "Xanomeline Low Dose",
      "TRTA": "Xanomeline Low Dose",
      "TRTAN": 54.0,
      "PARAM": "Time to First Dermatologic Event",
      "PARAMCD": "TTDE",
      "AVAL": 39.0,
      "STARTDT": 19662.0,
      "ADT": 19700.0,
      "CNSR": 5.397605346934028e-79,
      "EVNTDESC": "Dematologic Event Occured",
      "SRCDOM": "ADAE",
      "SRCVAR": "ASTDT",
      "SRCSEQ": 1.0,
      "SAFFL": "Y"
    },
    {
      "STUDYID": "CDISCPILOT01",
      "SITEID": "704",
      "USUBJID": "01-704-1164",
      "AGE": 67.0,
      "AGEGR1": "65-80",
      "AGEGR1N": 2.0,
      "RACE": "WHITE",
      "RACEN": 1.0,
      "SEX": "F",
      "TRTSDT": 19255.0,
      "TRTEDT": 19452.0,
      "TRTDUR": 198.0,
      "TRTP": "Placebo",
      "TRTA": "Placebo",
      "TRTAN": 5.397605346934028e-79,
      "PARAM": "Time to First Dermatologic Event",
      "PARAMCD": "TTDE",
      "AVAL": 198.0,
      "STARTDT": 19255.0,
      "ADT": 19452.0,
      "CNSR": 1.0,
      "EVNTDESC": "Study Completion Date",
      "SRCDOM": "ADSL",
      "SRCVAR": "RFENDT",
      "SRCSEQ": null,
      "SAFFL": "Y"
    },
    {
      "STUDYID": "CDISCPILOT01",
      "SITEID": "704",
      "USUBJID": "01-704-1218",
      "AGE": 81.0,
      "AGEGR1": ">80",
      "AGEGR1N": 3.0,
      "RACE": "WHITE",
      "RACEN": 1.0,
      "SEX": "F",
      "TRTSDT": 19316.0,
      "TRTEDT": 19505.0,
      "TRTDUR": 190.0,
      "TRTP": "Xanomeline Low Dose",
      "TRTA": "Xanomeline Low Dose",
      "TRTAN": 54.0,
      "PARAM": "Time to First Dermatologic Event",
      "PARAMCD": "TTDE",
      "AVAL": 190.0,
      "STARTDT": 19316.0,
      "ADT": 19505.0,
      "CNSR": 1.0,
      "EVNTDESC": "Study Completion Date",
      "SRCDOM": "ADSL",
      "SRCVAR": "RFENDT",
      "SRCSEQ": null,
      "SAFFL": "Y"
    },
    {
      "STUDYID": "CDISCPILOT01",
      "SITEID": "704",
      "USUBJID": "01-704-1233",
      "AGE": 87.0,
      "AGEGR1": ">80",
      "AGEGR1N": 3.0,
      "RACE": "WHITE",
      "RACEN": 1.0,
      "SEX": "F",
      "TRTSDT": 19438.0,
      "TRTEDT": 19553.0,
      "TRTDUR": 116.0,
      "TRTP": "Placebo",
      "TRTA": "Placebo",
      "TRTAN": 5.397605346934028e-79,
      "PARAM": "Time to First Dermatologic Event",
      "PARAMCD": "TTDE",
      "AVAL": 116.0,
      "STARTDT": 19438.0,
      "ADT": 19553.0,
      "CNSR": 1.0,
      "EVNTDESC": "Study Completion Date",
      "SRCDOM": "ADSL",
      "SRCVAR": "RFENDT",
      "SRCSEQ": null,
      "SAFFL": "Y"
    },
    {
      "STUDYID": "CDISCPILOT01",
      "SITEID": "704",
      "USUBJID": "01-704-1241",
      "AGE": 86.0,
      "AGEGR1": ">80",
      "AGEGR1N": 3.0,
      "RACE": "WHITE",
      "RACEN": 1.0,
      "SEX": "M",
      "TRTSDT": 19595.0,
      "TRTEDT": 19640.0,
      "TRTDUR": 46.0,
      "TRTP": "Xanomeline High Dose",
      "TRTA": "Xanomeline High Dose",
      "TRTAN": 81.0,
      "PARAM": "Time to First Dermatologic Event",
      "PARAMCD": "TTDE",
      "AVAL": 68.0,
      "STARTDT": 19595.0,
      "ADT": 19662.0,
      "CNSR": 1.0,
      "EVNTDESC": "Study Completion Date",
      "SRCDOM": "ADSL",
      "SRCVAR": "RFENDT",
      "SRCSEQ": null,
      "SAFFL": "Y"
    },
    {
      "STUDYID": "CDISCPILOT01",
      "SITEID": "704",
      "USUBJID": "01-704-1260",
      "AGE": 71.0,
      "AGEGR1": "65-80",
      "AGEGR1N": 2.0,
      "RACE": "WHITE",
      "RACEN": 1.0,
      "SEX": "F",
      "TRTSDT": 19235.0,
      "TRTEDT": 19301.0,
      "TRTDUR": 67.0,
      "TRTP": "Placebo",
      "TRTA": "Placebo",
      "TRTAN": 5.397605346934028e-79,
      "PARAM": "Time to First Dermatologic Event",
      "PARAMCD": "TTDE",
      "AVAL": 142.0,
      "STARTDT": 19235.0,
      "ADT": 19376.0,
      "CNSR": 1.0,
      "EVNTDESC": "Study Completion Date",
      "SRCDOM": "ADSL",
      "SRCVAR": "RFENDT",
      "SRCSEQ": null,
      "SAFFL": "Y"
    },
    {
      "STUDYID": "CDISCPILOT01",
      "SITEID": "704",
      "USUBJID": "01-704-1266",
      "AGE": 82.0,
      "AGEGR1": ">80",
      "AGEGR1N": 3.0,
      "RACE": "WHITE",
      "RACEN": 1.0,
      "SEX": "M",
      "TRTSDT": 19644.0,
      "TRTEDT": 19698.0,
      "TRTDUR": 55.0,
      "TRTP": "Xanomeline High Dose",
      "TRTA": "Xanomeline High Dose",
      "TRTAN": 81.0,
      "PARAM": "Time to First Dermatologic Event",
      "PARAMCD": "TTDE",
      "AVAL": 5.0,
      "STARTDT": 19644.0,
      "ADT": 19648.0,
      "CNSR": 5.397605346934028e-79,
      "EVNTDESC": "Dematologic Event Occured",
      "SRCDOM": "ADAE",
      "SRCVAR": "ASTDT",
      "SRCSEQ": 2.0,
      "SAFFL": "Y"
    },
    {
      "STUDYID": "CDISCPILOT01",
      "SITEID": "704",
      "USUBJID": "01-704-1323",
      "AGE": 68.0,
      "AGEGR1": "65-80",
      "AGEGR1N": 2.0,
      "RACE": "WHITE",
      "RACEN": 1.0,
      "SEX": "F",
      "TRTSDT": 19547.0,
      "TRTEDT": 19575.0,
      "TRTDUR": 29.0,
      "TRTP": "Xanomeline Low Dose",
      "TRTA": "Xanomeline Low Dose",
      "TRTAN": 54.0,
      "PARAM": "Time to First Dermatologic Event",
      "PARAMCD": "TTDE",
      "AVAL": 28.0,
      "STARTDT": 19547.0,
      "ADT": 19574.0,
      "CNSR": 5.397605346934028e-79,
      "EVNTDESC": "Dematologic Event Occured",
      "SRCDOM": "ADAE",
      "SRCVAR": "ASTDT",
      "SRCSEQ": 2.0,
      "SAFFL": "Y"
    },
    {
      "STUDYID": "CDISCPILOT01",
      "SITEID": "704",
      "USUBJID": "01-704-1325",
      "AGE": 81.0,
      "AGEGR1": ">80",
      "AGEGR1N": 3.0,
      "RACE": "WHITE",
      "RACEN": 1.0,
      "SEX": "M",
      "TRTSDT": 19836.0,
      "TRTEDT": 19908.0,
      "TRTDUR": 73.0,
      "TRTP": "Xanomeline Low Dose",
      "TRTA": "Xanomeline Low Dose",
      "TRTAN": 54.0,
      "PARAM": "Time to First Dermatologic Event",
      "PARAMCD": "TTDE",
      "AVAL": 31.0,
      "STARTDT": 19836.0,
      "ADT": 19866.0,
      "CNSR": 5.397605346934028e-79,
      "EVNTDESC": "Dematologic Event Occured",
      "SRCDOM": "ADAE",
      "SRCVAR": "ASTDT",
      "SRCSEQ": 1.0,
      "SAFFL": "Y"
    },
    {
      "STUDYID": "CDISCPILOT01",
      "SITEID": "704",
      "USUBJID": "01-704-1332",
      "AGE": 80.0,
      "AGEGR1": "65-80",
      "AGEGR1N": 2.0,
      "RACE": "WHITE",
      "RACEN": 1.0,
      "SEX": "M",
      "TRTSDT": 19701.0,
      "TRTEDT": 19768.0,
      "TRTDUR": 68.0,
      "TRTP": "Xanomeline High Dose",
      "TRTA": "Xanomeline High Dose",
      "TRTAN": 81.0,
      "PARAM": "Time to First Dermatologic Event",
      "PARAMCD": "TTDE",
      "AVAL": 2.0,
      "STARTDT": 19701.0,
      "ADT": 19702.0,
      "CNSR": 5.397605346934028e-79,
      "EVNTDESC": "Dematologic Event Occured",
      "SRCDOM": "ADAE",
      "SRCVAR": "ASTDT",
      "SRCSEQ": 1.0,
      "SAFFL": "Y"
    },
    {
      "STUDYID": "CDISCPILOT01",
      "SITEID": "704",
      "USUBJID": "01-704-1351",
      "AGE": 70.0,
      "AGEGR1": "65-80",
      "AGEGR1N": 2.0,
      "RACE": "WHITE",
      "RACEN": 1.0,
      "SEX": "M",
      "TRTSDT": 19643.0,
      "TRTEDT": 19831.0,
      "TRTDUR": 189.0,
      "TRTP": "Placebo",
      "TRTA": "Placebo",
      "TRTAN": 5.397605346934028e-79,
      "PARAM": "Time to First Dermatologic Event",
      "PARAMCD": "TTDE",
      "AVAL": 189.0,
      "STARTDT": 19643.0,
      "ADT": 19831.0,
      "CNSR": 1.0,
      "EVNTDESC": "Study Completion Date",
      "SRCDOM": "ADSL",
      "SRCVAR": "RFENDT",
      "SRCSEQ": null,
      "SAFFL": "Y"
    },
    {
      "STUDYID": "CDISCPILOT01",
      "SITEID": "704",
      "USUBJID": "01-704-1388",
      "AGE": 81.0,
      "AGEGR1": ">80",
      "AGEGR1N": 3.0,
      "RACE": "WHITE",
      "RACEN": 1.0,
      "SEX": "M",
      "TRTSDT": 19334.0,
      "TRTEDT": 19520.0,
      "TRTDUR": 187.0,
      "TRTP": "Placebo",
      "TRTA": "Placebo",
      "TRTAN": 5.397605346934028e-79,
      "PARAM": "Time to First Dermatologic Event",
      "PARAMCD": "TTDE",
      "AVAL": 195.0,
      "STARTDT": 19334.0,
      "ADT": 19528.0,
      "CNSR": 1.0,
      "EVNTDESC": "Study Completion Date",
      "SRCDOM": "ADSL",
      "SRCVAR": "RFENDT",
      "SRCSEQ": null,
      "SAFFL": "Y"
    },
    {
      "STUDYID": "CDISCPILOT01",
      "SITEID": "704",
      "USUBJID": "01-704-1435",
      "AGE": 74.0,
      "AGEGR1": "65-80",
      "AGEGR1N": 2.0,
      "RACE": "WHITE",
      "RACEN": 1.0,
      "SEX": "M",
      "TRTSDT": 19314.0,
      "TRTEDT": 19367.0,
      "TRTDUR": 54.0,
      "TRTP": "Placebo",
      "TRTA": "Placebo",
      "TRTAN": 5.397605346934028e-79,
      "PARAM": "Time to First Dermatologic Event",
      "PARAMCD": "TTDE",
      "AVAL": 57.0,
      "STARTDT": 19314.0,
      "ADT": 19370.0,
      "CNSR": 1.0,
      "EVNTDESC": "Study Completion Date",
      "SRCDOM": "ADSL",
      "SRCVAR": "RFENDT",
      "SRCSEQ": null,
      "SAFFL": "Y"
    },
    {
      "STUDYID": "CDISCPILOT01",
      "SITEID": "704",
      "USUBJID": "01-704-1445",
      "AGE": 75.0,
      "AGEGR1": "65-80",
      "AGEGR1N": 2.0,
      "RACE": "WHITE",
      "RACEN": 1.0,
      "SEX": "M",
      "TRTSDT": 19854.0,
      "TRTEDT": 20028.0,
      "TRTDUR": 175.0,
      "TRTP": "Placebo",
      "TRTA": "Placebo",
      "TRTAN": 5.397605346934028e-79,
      "PARAM": "Time to First Dermatologic Event",
      "PARAMCD": "TTDE",
      "AVAL": 175.0,
      "STARTDT": 19854.0,
      "ADT": 20028.0,
      "CNSR": 1.0,
      "EVNTDESC": "Study Completion Date",
      "SRCDOM": "ADSL",
      "SRCVAR": "RFENDT",
      "SRCSEQ": null,
      "SAFFL": "Y"
    },
    {
      "STUDYID": "CDISCPILOT01",
      "SITEID": "705",
      "USUBJID": "01-705-1018",
      "AGE": 69.0,
      "AGEGR1": "65-80",
      "AGEGR1N": 2.0,
      "RACE": "WHITE",
      "RACEN": 1.0,
      "SEX": "F",
      "TRTSDT": 19544.0,
      "TRTEDT": 19551.0,
      "TRTDUR": 8.0,
      "TRTP": "Placebo",
      "TRTA": "Placebo",
      "TRTAN": 5.397605346934028e-79,
      "PARAM": "Time to First Dermatologic Event",
      "PARAMCD": "TTDE",
      "AVAL": 8.0,
      "STARTDT": 19544.0,
      "ADT": 19551.0,
      "CNSR": 1.0,
      "EVNTDESC": "Study Completion Date",
      "SRCDOM": "ADSL",
      "SRCVAR": "RFENDT",
      "SRCSEQ": null,
      "SAFFL": "Y"
    },
    {
      "STUDYID": "CDISCPILOT01",
      "SITEID": "705",
      "USUBJID": "01-705-1031",
      "AGE": 56.0,
      "AGEGR1": "<65",
      "AGEGR1N": 1.0,
      "RACE": "WHITE",
      "RACEN": 1.0,
      "SEX": "F",
      "TRTSDT": 19689.0,
      "TRTEDT": 19854.0,
      "TRTDUR": 166.0,
      "TRTP": "Xanomeline Low Dose",
      "TRTA": "Xanomeline Low Dose",
      "TRTAN": 54.0,
      "PARAM": "Time to First Dermatologic Event",
      "PARAMCD": "TTDE",
      "AVAL": 29.0,
      "STARTDT": 19689.0,
      "ADT": 19717.0,
      "CNSR": 5.397605346934028e-79,
      "EVNTDESC": "Dematologic Event Occured",
      "SRCDOM": "ADAE",
      "SRCVAR": "ASTDT",
      "SRCSEQ": 1.0,
      "SAFFL": "Y"
    },
    {
      "STUDYID": "CDISCPILOT01",
      "SITEID": "705",
      "USUBJID": "01-705-1059",
      "AGE": 66.0,
      "AGEGR1": "65-80",
      "AGEGR1N": 2.0,
      "RACE": "WHITE",
      "RACEN": 1.0,
      "SEX": "F",
      "TRTSDT": 19575.0,
      "TRTEDT": 19697.0,
      "TRTDUR": 123.0,
      "TRTP": "Placebo",
      "TRTA": "Placebo",
      "TRTAN": 5.397605346934028e-79,
      "PARAM": "Time to First Dermatologic Event",
      "PARAMCD": "TTDE",
      "AVAL": 90.0,
      "STARTDT": 19575.0,
      "ADT": 19664.0,
      "CNSR": 5.397605346934028e-79,
      "EVNTDESC": "Dematologic Event Occured",
      "SRCDOM": "ADAE",
      "SRCVAR": "ASTDT",
      "SRCSEQ": 1.0,
      "SAFFL": "Y"
    },
    {
      "STUDYID": "CDISCPILOT01",
      "SITEID": "705",
      "USUBJID": "01-705-1186",
      "AGE": 84.0,
      "AGEGR1": ">80",
      "AGEGR1N": 3.0,
      "RACE": "WHITE",
      "RACEN": 1.0,
      "SEX": "F",
      "TRTSDT": 19731.0,
      "TRTEDT": 19749.0,
      "TRTDUR": 19.0,
      "TRTP": "Placebo",
      "TRTA": "Placebo",
      "TRTAN": 5.397605346934028e-79,
      "PARAM": "Time to First Dermatologic Event",
      "PARAMCD": "TTDE",
      "AVAL": 31.0,
      "STARTDT": 19731.0,
      "ADT": 19761.0,
      "CNSR": 1.0,
      "EVNTDESC": "Study Completion Date",
      "SRCDOM": "ADSL",
      "SRCVAR": "RFENDT",
      "SRCSEQ": null,
      "SAFFL": "Y"
    },
    {
      "STUDYID": "CDISCPILOT01",
      "SITEID": "705",
      "USUBJID": "01-705-1199",
      "AGE": 87.0,
      "AGEGR1": ">80",
      "AGEGR1N": 3.0,
      "RACE": "WHITE",
      "RACEN": 1.0,
      "SEX": "M",
      "TRTSDT": 19617.0,
      "TRTEDT": 19629.0,
      "TRTDUR": 13.0,
      "TRTP": "Xanomeline Low Dose",
      "TRTA": "Xanomeline Low Dose",
      "TRTAN": 54.0,
      "PARAM": "Time to First Dermatologic Event",
      "PARAMCD": "TTDE",
      "AVAL": 14.0,
      "STARTDT": 19617.0,
      "ADT": 19630.0,
      "CNSR": 1.0,
      "EVNTDESC": "Study Completion Date",
      "SRCDOM": "ADSL",
      "SRCVAR": "RFENDT",
      "SRCSEQ": null,
      "SAFFL": "Y"
    },
    {
      "STUDYID": "CDISCPILOT01",
      "SITEID": "705",
      "USUBJID": "01-705-1280",
      "AGE": 56.0,
      "AGEGR1": "<65",
      "AGEGR1N": 1.0,
      "RACE": "WHITE",
      "RACEN": 1.0,
      "SEX": "F",
      "TRTSDT": 19740.0,
      "TRTEDT": 19929.0,
      "TRTDUR": 190.0,
      "TRTP": "Xanomeline High Dose",
      "TRTA": "Xanomeline High Dose",
      "TRTAN": 81.0,
      "PARAM": "Time to First Dermatologic Event",
      "PARAMCD": "TTDE",
      "AVAL": 94.0,
      "STARTDT": 19740.0,
      "ADT": 19833.0,
      "CNSR": 5.397605346934028e-79,
      "EVNTDESC": "Dematologic Event Occured",
      "SRCDOM": "ADAE",
      "SRCVAR": "ASTDT",
      "SRCSEQ": 1.0,
      "SAFFL": "Y"
    },
    {
      "STUDYID": "CDISCPILOT01",
      "SITEID": "705",
      "USUBJID": "01-705-1281",
      "AGE": 73.0,
      "AGEGR1": "65-80",
      "AGEGR1N": 2.0,
      "RACE": "BLACK OR AFRICAN AMERICAN",
      "RACEN": 2.0,
      "SEX": "F",
      "TRTSDT": 19690.0,
      "TRTEDT": 19781.0,
      "TRTDUR": 92.0,
      "TRTP": "Xanomeline High Dose",
      "TRTA": "Xanomeline High Dose",
      "TRTAN": 81.0,
      "PARAM": "Time to First Dermatologic Event",
      "PARAMCD": "TTDE",
      "AVAL": 64.0,
      "STARTDT": 19690.0,
      "ADT": 19753.0,
      "CNSR": 5.397605346934028e-79,
      "EVNTDESC": "Dematologic Event Occured",
      "SRCDOM": "ADAE",
      "SRCVAR": "ASTDT",
      "SRCSEQ": 1.0,
      "SAFFL": "Y"
    },
    {
      "STUDYID": "CDISCPILOT01",
      "SITEID": "705",
      "USUBJID": "01-705-1282",
      "AGE": 70.0,
      "AGEGR1": "65-80",
      "AGEGR1N": 2.0,
      "RACE": "BLACK OR AFRICAN AMERICAN",
      "RACEN": 2.0,
      "SEX": "F",
      "TRTSDT": 19353.0,
      "TRTEDT": 19533.0,
      "TRTDUR": 181.0,
      "TRTP": "Placebo",
      "TRTA": "Placebo",
      "TRTAN": 5.397605346934028e-79,
      "PARAM": "Time to First Dermatologic Event",
      "PARAMCD": "TTDE",
      "AVAL": 181.0,
      "STARTDT": 19353.0,
      "ADT": 19533.0,
      "CNSR": 1.0,
      "EVNTDESC": "Study Completion Date",
      "SRCDOM": "ADSL",
      "SRCVAR": "RFENDT",
      "SRCSEQ": null,
      "SAFFL": "Y"
    },
    {
      "STUDYID": "CDISCPILOT01",
      "SITEID": "705",
      "USUBJID": "01-705-1292",
      "AGE": 60.0,
      "AGEGR1": "<65",
      "AGEGR1N": 1.0,
      "RACE": "BLACK OR AFRICAN AMERICAN",
      "RACEN": 2.0,
      "SEX": "F",
      "TRTSDT": 19645.0,
      "TRTEDT": 19856.0,
      "TRTDUR": 212.0,
      "TRTP": "Xanomeline Low Dose",
      "TRTA": "Xanomeline Low Dose",
      "TRTAN": 54.0,
      "PARAM": "Time to First Dermatologic Event",
      "PARAMCD": "TTDE",
      "AVAL": 15.0,
      "STARTDT": 19645.0,
      "ADT": 19659.0,
      "CNSR": 5.397605346934028e-79,
      "EVNTDESC": "Dematologic Event Occured",
      "SRCDOM": "ADAE",
      "SRCVAR": "ASTDT",
      "SRCSEQ": 1.0,
      "SAFFL": "Y"
    },
    {
      "STUDYID": "CDISCPILOT01",
      "SITEID": "705",
      "USUBJID": "01-705-1303",
      "AGE": 72.0,
      "AGEGR1": "65-80",
      "AGEGR1N": 2.0,
      "RACE": "WHITE",
      "RACEN": 1.0,
      "SEX": "M",
      "TRTSDT": 19708.0,
      "TRTEDT": 19876.0,
      "TRTDUR": 169.0,
      "TRTP": "Xanomeline High Dose",
      "TRTA": "Xanomeline High Dose",
      "TRTAN": 81.0,
      "PARAM": "Time to First Dermatologic Event",
      "PARAMCD": "TTDE",
      "AVAL": 52.0,
      "STARTDT": 19708.0,
      "ADT": 19759.0,
      "CNSR": 5.397605346934028e-79,
      "EVNTDESC": "Dematologic Event Occured",
      "SRCDOM": "ADAE",
      "SRCVAR": "ASTDT",
      "SRCSEQ": 1.0,
      "SAFFL": "Y"
    },
    {
      "STUDYID": "CDISCPILOT01",
      "SITEID": "705",
      "USUBJID": "01-705-1310",
      "AGE": 74.0,
      "AGEGR1": "65-80",
      "AGEGR1N": 2.0,
      "RACE": "WHITE",
      "RACEN": 1.0,
      "SEX": "F",
      "TRTSDT": 19664.0,
      "TRTEDT": 19746.0,
      "TRTDUR": 83.0,
      "TRTP": "Xanomeline High Dose",
      "TRTA": "Xanomeline High Dose",
      "TRTAN": 81.0,
      "PARAM": "Time to First Dermatologic Event",
      "PARAMCD": "TTDE",
      "AVAL": 13.0,
      "STARTDT": 19664.0,
      "ADT": 19676.0,
      "CNSR": 5.397605346934028e-79,
      "EVNTDESC": "Dematologic Event Occured",
      "SRCDOM": "ADAE",
      "SRCVAR": "ASTDT",
      "SRCSEQ": 1.0,
      "SAFFL": "Y"
    },
    {
      "STUDYID": "CDISCPILOT01",
      "SITEID": "705",
      "USUBJID": "01-705-1349",
      "AGE": 86.0,
      "AGEGR1": ">80",
      "AGEGR1N": 3.0,
      "RACE": "WHITE",
      "RACEN": 1.0,
      "SEX": "F",
      "TRTSDT": 19427.0,
      "TRTEDT": 19609.0,
      "TRTDUR": 183.0,
      "TRTP": "Placebo",
      "TRTA": "Placebo",
      "TRTAN": 5.397605346934028e-79,
      "PARAM": "Time to First Dermatologic Event",
      "PARAMCD": "TTDE",
      "AVAL": 183.0,
      "STARTDT": 19427.0,
      "ADT": 19609.0,
      "CNSR": 1.0,
      "EVNTDESC": "Study Completion Date",
      "SRCDOM": "ADSL",
      "SRCVAR": "RFENDT",
      "SRCSEQ": null,
      "SAFFL": "Y"
    },
    {
      "STUDYID": "CDISCPILOT01",
      "SITEID": "705",
      "USUBJID": "01-705-1377",
      "AGE": 63.0,
      "AGEGR1": "<65",
      "AGEGR1N": 1.0,
      "RACE": "BLACK OR AFRICAN AMERICAN",
      "RACEN": 2.0,
      "SEX": "F",
      "TRTSDT": 19727.0,
      "TRTEDT": 19789.0,
      "TRTDUR": 63.0,
      "TRTP": "Xanomeline High Dose",
      "TRTA": "Xanomeline High Dose",
      "TRTAN": 81.0,
      "PARAM": "Time to First Dermatologic Event",
      "PARAMCD": "TTDE",
      "AVAL": 63.0,
      "STARTDT": 19727.0,
      "ADT": 19789.0,
      "CNSR": 1.0,
      "EVNTDESC": "Study Completion Date",
      "SRCDOM": "ADSL",
      "SRCVAR": "RFENDT",
      "SRCSEQ": null,
      "SAFFL": "Y"
    },
    {
      "STUDYID": "CDISCPILOT01",
      "SITEID": "705",
      "USUBJID": "01-705-1382",
      "AGE": 82.0,
      "AGEGR1": ">80",
      "AGEGR1N": 3.0,
      "RACE": "WHITE",
      "RACEN": 1.0,
      "SEX": "M",
      "TRTSDT": 19491.0,
      "TRTEDT": 19491.0,
      "TRTDUR": 1.0,
      "TRTP": "Xanomeline High Dose",
      "TRTA": "Xanomeline High Dose",
      "TRTAN": 81.0,
      "PARAM": "Time to First Dermatologic Event",
      "PARAMCD": "TTDE",
      "AVAL": 1.0,
      "STARTDT": 19491.0,
      "ADT": 19491.0,
      "CNSR": 1.0,
      "EVNTDESC": "Study Completion Date",
      "SRCDOM": "ADSL",
      "SRCVAR": "RFENDT",
      "SRCSEQ": null,
      "SAFFL": "Y"
    },
    {
      "STUDYID": "CDISCPILOT01",
      "SITEID": "705",
      "USUBJID": "01-705-1393",
      "AGE": 84.0,
      "AGEGR1": ">80",
      "AGEGR1N": 3.0,
      "RACE": "WHITE",
      "RACEN": 1.0,
      "SEX": "F",
      "TRTSDT": 19243.0,
      "TRTEDT": 19390.0,
      "TRTDUR": 148.0,
      "TRTP": "Xanomeline Low Dose",
      "TRTA": "Xanomeline Low Dose",
      "TRTAN": 54.0,
      "PARAM": "Time to First Dermatologic Event",
      "PARAMCD": "TTDE",
      "AVAL": 167.0,
      "STARTDT": 19243.0,
      "ADT": 19409.0,
      "CNSR": 1.0,
      "EVNTDESC": "Study Completion Date",
      "SRCDOM": "ADSL",
      "SRCVAR": "RFENDT",
      "SRCSEQ": null,
      "SAFFL": "Y"
    },
    {
      "STUDYID": "CDISCPILOT01",
      "SITEID": "705",
      "USUBJID": "01-705-1431",
      "AGE": 68.0,
      "AGEGR1": "65-80",
      "AGEGR1N": 2.0,
      "RACE": "WHITE",
      "RACEN": 1.0,
      "SEX": "F",
      "TRTSDT": 19532.0,
      "TRTEDT": 19711.0,
      "TRTDUR": 180.0,
      "TRTP": "Xanomeline Low Dose",
      "TRTA": "Xanomeline Low Dose",
      "TRTAN": 54.0,
      "PARAM": "Time to First Dermatologic Event",
      "PARAMCD": "TTDE",
      "AVAL": 180.0,
      "STARTDT": 19532.0,
      "ADT": 19711.0,
      "CNSR": 1.0,
      "EVNTDESC": "Study Completion Date",
      "SRCDOM": "ADSL",
      "SRCVAR": "RFENDT",
      "SRCSEQ": null,
      "SAFFL": "Y"
    },
    {
      "STUDYID": "CDISCPILOT01",
      "SITEID": "706",
      "USUBJID": "01-706-1041",
      "AGE": 64.0,
      "AGEGR1": "<65",
      "AGEGR1N": 1.0,
      "RACE": "BLACK OR AFRICAN AMERICAN",
      "RACEN": 2.0,
      "SEX": "F",
      "TRTSDT": 19723.0,
      "TRTEDT": 19932.0,
      "TRTDUR": 210.0,
      "TRTP": "Placebo",
      "TRTA": "Placebo",
      "TRTAN": 5.397605346934028e-79,
      "PARAM": "Time to First Dermatologic Event",
      "PARAMCD": "TTDE",
      "AVAL": 64.0,
      "STARTDT": 19723.0,
      "ADT": 19786.0,
      "CNSR": 5.397605346934028e-79,
      "EVNTDESC": "Dematologic Event Occured",
      "SRCDOM": "ADAE",
      "SRCVAR": "ASTDT",
      "SRCSEQ": 6.0,
      "SAFFL": "Y"
    },
    {
      "STUDYID": "CDISCPILOT01",
      "SITEID": "706",
      "USUBJID": "01-706-1049",
      "AGE": 60.0,
      "AGEGR1": "<65",
      "AGEGR1N": 1.0,
      "RACE": "WHITE",
      "RACEN": 1.0,
      "SEX": "F",
      "TRTSDT": 19492.0,
      "TRTEDT": 19527.0,
      "TRTDUR": 36.0,
      "TRTP": "Xanomeline High Dose",
      "TRTA": "Xanomeline High Dose",
      "TRTAN": 81.0,
      "PARAM": "Time to First Dermatologic Event",
      "PARAMCD": "TTDE",
      "AVAL": 43.0,
      "STARTDT": 19492.0,
      "ADT": 19534.0,
      "CNSR": 1.0,
      "EVNTDESC": "Study Completion Date",
      "SRCDOM": "ADSL",
      "SRCVAR": "RFENDT",
      "SRCSEQ": null,
      "SAFFL": "Y"
    },
    {
      "STUDYID": "CDISCPILOT01",
      "SITEID": "706",
      "USUBJID": "01-706-1384",
      "AGE": 74.0,
      "AGEGR1": "65-80",
      "AGEGR1N": 2.0,
      "RACE": "WHITE",
      "RACEN": 1.0,
      "SEX": "F",
      "TRTSDT": 19251.0,
      "TRTEDT": 19260.0,
      "TRTDUR": 10.0,
      "TRTP": "Xanomeline Low Dose",
      "TRTA": "Xanomeline Low Dose",
      "TRTAN": 54.0,
      "PARAM": "Time to First Dermatologic Event",
      "PARAMCD": "TTDE",
      "AVAL": 1.0,
      "STARTDT": 19251.0,
      "ADT": 19251.0,
      "CNSR": 5.397605346934028e-79,
      "EVNTDESC": "Dematologic Event Occured",
      "SRCDOM": "ADAE",
      "SRCVAR": "ASTDT",
      "SRCSEQ": 1.0,
      "SAFFL": "Y"
    },
    {
      "STUDYID": "CDISCPILOT01",
      "SITEID": "707",
      "USUBJID": "01-707-1037",
      "AGE": 72.0,
      "AGEGR1": "65-80",
      "AGEGR1N": 2.0,
      "RACE": "WHITE",
      "RACEN": 1.0,
      "SEX": "F",
      "TRTSDT": 19712.0,
      "TRTEDT": 19716.0,
      "TRTDUR": 5.0,
      "TRTP": "Xanomeline Low Dose",
      "TRTA": "Xanomeline Low Dose",
      "TRTAN": 54.0,
      "PARAM": "Time to First Dermatologic Event",
      "PARAMCD": "TTDE",
      "AVAL": 20.0,
      "STARTDT": 19712.0,
      "ADT": 19731.0,
      "CNSR": 1.0,
      "EVNTDESC": "Study Completion Date",
      "SRCDOM": "ADSL",
      "SRCVAR": "RFENDT",
      "SRCSEQ": null,
      "SAFFL": "Y"
    },
    {
      "STUDYID": "CDISCPILOT01",
      "SITEID": "707",
      "USUBJID": "01-707-1206",
      "AGE": 65.0,
      "AGEGR1": "65-80",
      "AGEGR1N": 2.0,
      "RACE": "WHITE",
      "RACEN": 1.0,
      "SEX": "M",
      "TRTSDT": 19659.0,
      "TRTEDT": 19839.0,
      "TRTDUR": 181.0,
      "TRTP": "Placebo",
      "TRTA": "Placebo",
      "TRTAN": 5.397605346934028e-79,
      "PARAM": "Time to First Dermatologic Event",
      "PARAMCD": "TTDE",
      "AVAL": 182.0,
      "STARTDT": 19659.0,
      "ADT": 19840.0,
      "CNSR": 1.0,
      "EVNTDESC": "Study Completion Date",
      "SRCDOM": "ADSL",
      "SRCVAR": "RFENDT",
      "SRCSEQ": null,
      "SAFFL": "Y"
    },
    {
      "STUDYID": "CDISCPILOT01",
      "SITEID": "708",
      "USUBJID": "01-708-1019",
      "AGE": 68.0,
      "AGEGR1": "65-80",
      "AGEGR1N": 2.0,
      "RACE": "WHITE",
      "RACEN": 1.0,
      "SEX": "M",
      "TRTSDT": 19712.0,
      "TRTEDT": 19724.0,
      "TRTDUR": 13.0,
      "TRTP": "Xanomeline Low Dose",
      "TRTA": "Xanomeline Low Dose",
      "TRTAN": 54.0,
      "PARAM": "Time to First Dermatologic Event",
      "PARAMCD": "TTDE",
      "AVAL": 35.0,
      "STARTDT": 19712.0,
      "ADT": 19746.0,
      "CNSR": 1.0,
      "EVNTDESC": "Study Completion Date",
      "SRCDOM": "ADSL",
      "SRCVAR": "RFENDT",
      "SRCSEQ": null,
      "SAFFL": "Y"
    },
    {
      "STUDYID": "CDISCPILOT01",
      "SITEID": "708",
      "USUBJID": "01-708-1032",
      "AGE": 62.0,
      "AGEGR1": "<65",
      "AGEGR1N": 1.0,
      "RACE": "WHITE",
      "RACEN": 1.0,
      "SEX": "M",
      "TRTSDT": 19398.0,
      "TRTEDT": 19418.0,
      "TRTDUR": 21.0,
      "TRTP": "Xanomeline Low Dose",
      "TRTA": "Xanomeline Low Dose",
      "TRTAN": 54.0,
      "PARAM": "Time to First Dermatologic Event",
      "PARAMCD": "TTDE",
      "AVAL": 18.0,
      "STARTDT": 19398.0,
      "ADT": 19415.0,
      "CNSR": 5.397605346934028e-79,
      "EVNTDESC": "Dematologic Event Occured",
      "SRCDOM": "ADAE",
      "SRCVAR": "ASTDT",
      "SRCSEQ": 1.0,
      "SAFFL": "Y"
    },
    {
      "STUDYID": "CDISCPILOT01",
      "SITEID": "708",
      "USUBJID": "01-708-1084",
      "AGE": 73.0,
      "AGEGR1": "65-80",
      "AGEGR1N": 2.0,
      "RACE": "WHITE",
      "RACEN": 1.0,
      "SEX": "F",
      "TRTSDT": 19487.0,
      "TRTEDT": 19673.0,
      "TRTDUR": 187.0,
      "TRTP": "Xanomeline Low Dose",
      "TRTA": "Xanomeline Low Dose",
      "TRTAN": 54.0,
      "PARAM": "Time to First Dermatologic Event",
      "PARAMCD": "TTDE",
      "AVAL": 187.0,
      "STARTDT": 19487.0,
      "ADT": 19673.0,
      "CNSR": 1.0,
      "EVNTDESC": "Study Completion Date",
      "SRCDOM": "ADSL",
      "SRCVAR": "RFENDT",
      "SRCSEQ": null,
      "SAFFL": "Y"
    },
    {
      "STUDYID": "CDISCPILOT01",
      "SITEID": "708",
      "USUBJID": "01-708-1087",
      "AGE": 74.0,
      "AGEGR1": "65-80",
      "AGEGR1N": 2.0,
      "RACE": "WHITE",
      "RACEN": 1.0,
      "SEX": "F",
      "TRTSDT": 19288.0,
      "TRTEDT": 19476.0,
      "TRTDUR": 189.0,
      "TRTP": "Placebo",
      "TRTA": "Placebo",
      "TRTAN": 5.397605346934028e-79,
      "PARAM": "Time to First Dermatologic Event",
      "PARAMCD": "TTDE",
      "AVAL": 189.0,
      "STARTDT": 19288.0,
      "ADT": 19476.0,
      "CNSR": 1.0,
      "EVNTDESC": "Study Completion Date",
      "SRCDOM": "ADSL",
      "SRCVAR": "RFENDT",
      "SRCSEQ": null,
      "SAFFL": "Y"
    },
    {
      "STUDYID": "CDISCPILOT01",
      "SITEID": "708",
      "USUBJID": "01-708-1158",
      "AGE": 81.0,
      "AGEGR1": ">80",
      "AGEGR1N": 3.0,
      "RACE": "WHITE",
      "RACEN": 1.0,
      "SEX": "F",
      "TRTSDT": 19762.0,
      "TRTEDT": 19803.0,
      "TRTDUR": 42.0,
      "TRTP": "Placebo",
      "TRTA": "Placebo",
      "TRTAN": 5.397605346934028e-79,
      "PARAM": "Time to First Dermatologic Event",
      "PARAMCD": "TTDE",
      "AVAL": 43.0,
      "STARTDT": 19762.0,
      "ADT": 19804.0,
      "CNSR": 5.397605346934028e-79,
      "EVNTDESC": "Dematologic Event Occured",
      "SRCDOM": "ADAE",
      "SRCVAR": "ASTDT",
      "SRCSEQ": 2.0,
      "SAFFL": "Y"
    },
    {
      "STUDYID": "CDISCPILOT01",
      "SITEID": "708",
      "USUBJID": "01-708-1171",
      "AGE": 77.0,
      "AGEGR1": "65-80",
      "AGEGR1N": 2.0,
      "RACE": "WHITE",
      "RACEN": 1.0,
      "SEX": "F",
      "TRTSDT": 19333.0,
      "TRTEDT": 19513.0,
      "TRTDUR": 181.0,
      "TRTP": "Placebo",
      "TRTA": "Placebo",
      "TRTAN": 5.397605346934028e-79,
      "PARAM": "Time to First Dermatologic Event",
      "PARAMCD": "TTDE",
      "AVAL": 181.0,
      "STARTDT": 19333.0,
      "ADT": 19513.0,
      "CNSR": 1.0,
      "EVNTDESC": "Study Completion Date",
      "SRCDOM": "ADSL",
      "SRCVAR": "RFENDT",
      "SRCSEQ": null,
      "SAFFL": "Y"
    },
    {
      "STUDYID": "CDISCPILOT01",
      "SITEID": "708",
      "USUBJID": "01-708-1178",
      "AGE": 77.0,
      "AGEGR1": "65-80",
      "AGEGR1N": 2.0,
      "RACE": "BLACK OR AFRICAN AMERICAN",
      "RACEN": 2.0,
      "SEX": "F",
      "TRTSDT": 19721.0,
      "TRTEDT": 19819.0,
      "TRTDUR": 99.0,
      "TRTP": "Xanomeline High Dose",
      "TRTA": "Xanomeline High Dose",
      "TRTAN": 81.0,
      "PARAM": "Time to First Dermatologic Event",
      "PARAMCD": "TTDE",
      "AVAL": 71.0,
      "STARTDT": 19721.0,
      "ADT": 19791.0,
      "CNSR": 5.397605346934028e-79,
      "EVNTDESC": "Dematologic Event Occured",
      "SRCDOM": "ADAE",
      "SRCVAR": "ASTDT",
      "SRCSEQ": 3.0,
      "SAFFL": "Y"
    },
    {
      "STUDYID": "CDISCPILOT01",
      "SITEID": "708",
      "USUBJID": "01-708-1213",
      "AGE": 76.0,
      "AGEGR1": "65-80",
      "AGEGR1N": 2.0,
      "RACE": "WHITE",
      "RACEN": 1.0,
      "SEX": "F",
      "TRTSDT": 19398.0,
      "TRTEDT": 19411.0,
      "TRTDUR": 14.0,
      "TRTP": "Xanomeline High Dose",
      "TRTA": "Xanomeline High Dose",
      "TRTAN": 81.0,
      "PARAM": "Time to First Dermatologic Event",
      "PARAMCD": "TTDE",
      "AVAL": 18.0,
      "STARTDT": 19398.0,
      "ADT": 19415.0,
      "CNSR": 1.0,
      "EVNTDESC": "Study Completion Date",
      "SRCDOM": "ADSL",
      "SRCVAR": "RFENDT",
      "SRCSEQ": null,
      "SAFFL": "Y"
    },
    {
      "STUDYID": "CDISCPILOT01",
      "SITEID": "708",
      "USUBJID": "01-708-1216",
      "AGE": 78.0,
      "AGEGR1": "65-80",
      "AGEGR1N": 2.0,
      "RACE": "WHITE",
      "RACEN": 1.0,
      "SEX": "M",
      "TRTSDT": 19290.0,
      "TRTEDT": 19326.0,
      "TRTDUR": 37.0,
      "TRTP": "Xanomeline High Dose",
      "TRTA": "Xanomeline High Dose",
      "TRTAN": 81.0,
      "PARAM": "Time to First Dermatologic Event",
      "PARAMCD": "TTDE",
      "AVAL": 14.0,
      "STARTDT": 19290.0,
      "ADT": 19303.0,
      "CNSR": 5.397605346934028e-79,
      "EVNTDESC": "Dematologic Event Occured",
      "SRCDOM": "ADAE",
      "SRCVAR": "ASTDT",
      "SRCSEQ": 1.0,
      "SAFFL": "Y"
    },
    {
      "STUDYID": "CDISCPILOT01",
      "SITEID": "708",
      "USUBJID": "01-708-1236",
      "AGE": 86.0,
      "AGEGR1": ">80",
      "AGEGR1N": 3.0,
      "RACE": "WHITE",
      "RACEN": 1.0,
      "SEX": "F",
      "TRTSDT": 19622.0,
      "TRTEDT": 19622.0,
      "TRTDUR": 1.0,
      "TRTP": "Xanomeline High Dose",
      "TRTA": "Xanomeline High Dose",
      "TRTAN": 81.0,
      "PARAM": "Time to First Dermatologic Event",
      "PARAMCD": "TTDE",
      "AVAL": 6.0,
      "STARTDT": 19622.0,
      "ADT": 19627.0,
      "CNSR": 1.0,
      "EVNTDESC": "Study Completion Date",
      "SRCDOM": "ADSL",
      "SRCVAR": "RFENDT",
      "SRCSEQ": null,
      "SAFFL": "Y"
    },
    {
      "STUDYID": "CDISCPILOT01",
      "SITEID": "708",
      "USUBJID": "01-708-1253",
      "AGE": 61.0,
      "AGEGR1": "<65",
      "AGEGR1N": 1.0,
      "RACE": "WHITE",
      "RACEN": 1.0,
      "SEX": "M",
      "TRTSDT": 19485.0,
      "TRTEDT": 19667.0,
      "TRTDUR": 183.0,
      "TRTP": "Placebo",
      "TRTA": "Placebo",
      "TRTAN": 5.397605346934028e-79,
      "PARAM": "Time to First Dermatologic Event",
      "PARAMCD": "TTDE",
      "AVAL": 183.0,
      "STARTDT": 19485.0,
      "ADT": 19667.0,
      "CNSR": 1.0,
      "EVNTDESC": "Study Completion Date",
      "SRCDOM": "ADSL",
      "SRCVAR": "RFENDT",
      "SRCSEQ": null,
      "SAFFL": "Y"
    },
    {
      "STUDYID": "CDISCPILOT01",
      "SITEID": "708",
      "USUBJID": "01-708-1272",
      "AGE": 82.0,
      "AGEGR1": ">80",
      "AGEGR1N": 3.0,
      "RACE": "WHITE",
      "RACEN": 1.0,
      "SEX": "M",
      "TRTSDT": 19395.0,
      "TRTEDT": 19439.0,
      "TRTDUR": 45.0,
      "TRTP": "Xanomeline Low Dose",
      "TRTA": "Xanomeline Low Dose",
      "TRTAN": 54.0,
      "PARAM": "Time to First Dermatologic Event",
      "PARAMCD": "TTDE",
      "AVAL": 22.0,
      "STARTDT": 19395.0,
      "ADT": 19416.0,
      "CNSR": 5.397605346934028e-79,
      "EVNTDESC": "Dematologic Event Occured",
      "SRCDOM": "ADAE",
      "SRCVAR": "ASTDT",
      "SRCSEQ": 4.0,
      "SAFFL": "Y"
    },
    {
      "STUDYID": "CDISCPILOT01",
      "SITEID": "708",
      "USUBJID": "01-708-1286",
      "AGE": 80.0,
      "AGEGR1": "65-80",
      "AGEGR1N": 2.0,
      "RACE": "BLACK OR AFRICAN AMERICAN",
      "RACEN": 2.0,
      "SEX": "F",
      "TRTSDT": 19611.0,
      "TRTEDT": 19790.0,
      "TRTDUR": 180.0,
      "TRTP": "Placebo",
      "TRTA": "Placebo",
      "TRTAN": 5.397605346934028e-79,
      "PARAM": "Time to First Dermatologic Event",
      "PARAMCD": "TTDE",
      "AVAL": 3.0,
      "STARTDT": 19611.0,
      "ADT": 19613.0,
      "CNSR": 5.397605346934028e-79,
      "EVNTDESC": "Dematologic Event Occured",
      "SRCDOM": "ADAE",
      "SRCVAR": "ASTDT",
      "SRCSEQ": 1.0,
      "SAFFL": "Y"
    },
    {
      "STUDYID": "CDISCPILOT01",
      "SITEID": "708",
      "USUBJID": "01-708-1296",
      "AGE": 57.0,
      "AGEGR1": "<65",
      "AGEGR1N": 1.0,
      "RACE": "BLACK OR AFRICAN AMERICAN",
      "RACEN": 2.0,
      "SEX": "M",
      "TRTSDT": 19523.0,
      "TRTEDT": 19704.0,
      "TRTDUR": 182.0,
      "TRTP": "Placebo",
      "TRTA": "Placebo",
      "TRTAN": 5.397605346934028e-79,
      "PARAM": "Time to First Dermatologic Event",
      "PARAMCD": "TTDE",
      "AVAL": 83.0,
      "STARTDT": 19523.0,
      "ADT": 19605.0,
      "CNSR": 5.397605346934028e-79,
      "EVNTDESC": "Dematologic Event Occured",
      "SRCDOM": "ADAE",
      "SRCVAR": "ASTDT",
      "SRCSEQ": 3.0,
      "SAFFL": "Y"
    },
    {
      "STUDYID": "CDISCPILOT01",
      "SITEID": "708",
      "USUBJID": "01-708-1297",
      "AGE": 61.0,
      "AGEGR1": "<65",
      "AGEGR1N": 1.0,
      "RACE": "WHITE",
      "RACEN": 1.0,
      "SEX": "M",
      "TRTSDT": 19383.0,
      "TRTEDT": 19481.0,
      "TRTDUR": 99.0,
      "TRTP": "Xanomeline Low Dose",
      "TRTA": "Xanomeline Low Dose",
      "TRTAN": 54.0,
      "PARAM": "Time to First Dermatologic Event",
      "PARAMCD": "TTDE",
      "AVAL": 68.0,
      "STARTDT": 19383.0,
      "ADT": 19450.0,
      "CNSR": 5.397605346934028e-79,
      "EVNTDESC": "Dematologic Event Occured",
      "SRCDOM": "ADAE",
      "SRCVAR": "ASTDT",
      "SRCSEQ": 1.0,
      "SAFFL": "Y"
    },
    {
      "STUDYID": "CDISCPILOT01",
      "SITEID": "708",
      "USUBJID": "01-708-1316",
      "AGE": 74.0,
      "AGEGR1": "65-80",
      "AGEGR1N": 2.0,
      "RACE": "WHITE",
      "RACEN": 1.0,
      "SEX": "F",
      "TRTSDT": 19593.0,
      "TRTEDT": 19783.0,
      "TRTDUR": 191.0,
      "TRTP": "Placebo",
      "TRTA": "Placebo",
      "TRTAN": 5.397605346934028e-79,
      "PARAM": "Time to First Dermatologic Event",
      "PARAMCD": "TTDE",
      "AVAL": 177.0,
      "STARTDT": 19593.0,
      "ADT": 19769.0,
      "CNSR": 5.397605346934028e-79,
      "EVNTDESC": "Dematologic Event Occured",
      "SRCDOM": "ADAE",
      "SRCVAR": "ASTDT",
      "SRCSEQ": 2.0,
      "SAFFL": "Y"
    },
    {
      "STUDYID": "CDISCPILOT01",
      "SITEID": "708",
      "USUBJID": "01-708-1336",
      "AGE": 73.0,
      "AGEGR1": "65-80",
      "AGEGR1N": 2.0,
      "RACE": "WHITE",
      "RACEN": 1.0,
      "SEX": "M",
      "TRTSDT": 19334.0,
      "TRTEDT": 19514.0,
      "TRTDUR": 181.0,
      "TRTP": "Xanomeline High Dose",
      "TRTA": "Xanomeline High Dose",
      "TRTAN": 81.0,
      "PARAM": "Time to First Dermatologic Event",
      "PARAMCD": "TTDE",
      "AVAL": 37.0,
      "STARTDT": 19334.0,
      "ADT": 19370.0,
      "CNSR": 5.397605346934028e-79,
      "EVNTDESC": "Dematologic Event Occured",
      "SRCDOM": "ADAE",
      "SRCVAR": "ASTDT",
      "SRCSEQ": 2.0,
      "SAFFL": "Y"
    },
    {
      "STUDYID": "CDISCPILOT01",
      "SITEID": "708",
      "USUBJID": "01-708-1342",
      "AGE": 59.0,
      "AGEGR1": "<65",
      "AGEGR1N": 1.0,
      "RACE": "WHITE",
      "RACEN": 1.0,
      "SEX": "F",
      "TRTSDT": 19356.0,
      "TRTEDT": 19537.0,
      "TRTDUR": 182.0,
      "TRTP": "Placebo",
      "TRTA": "Placebo",
      "TRTAN": 5.397605346934028e-79,
      "PARAM": "Time to First Dermatologic Event",
      "PARAMCD": "TTDE",
      "AVAL": 182.0,
      "STARTDT": 19356.0,
      "ADT": 19537.0,
      "CNSR": 1.0,
      "EVNTDESC": "Study Completion Date",
      "SRCDOM": "ADSL",
      "SRCVAR": "RFENDT",
      "SRCSEQ": null,
      "SAFFL": "Y"
    },
    {
      "STUDYID": "CDISCPILOT01",
      "SITEID": "708",
      "USUBJID": "01-708-1347",
      "AGE": 61.0,
      "AGEGR1": "<65",
      "AGEGR1N": 1.0,
      "RACE": "WHITE",
      "RACEN": 1.0,
      "SEX": "F",
      "TRTSDT": 19468.0,
      "TRTEDT": 19527.0,
      "TRTDUR": 60.0,
      "TRTP": "Xanomeline High Dose",
      "TRTA": "Xanomeline High Dose",
      "TRTAN": 81.0,
      "PARAM": "Time to First Dermatologic Event",
      "PARAMCD": "TTDE",
      "AVAL": 55.0,
      "STARTDT": 19468.0,
      "ADT": 19522.0,
      "CNSR": 5.397605346934028e-79,
      "EVNTDESC": "Dematologic Event Occured",
      "SRCDOM": "ADAE",
      "SRCVAR": "ASTDT",
      "SRCSEQ": 1.0,
      "SAFFL": "Y"
    },
    {
      "STUDYID": "CDISCPILOT01",
      "SITEID": "708",
      "USUBJID": "01-708-1348",
      "AGE": 79.0,
      "AGEGR1": "65-80",
      "AGEGR1N": 2.0,
      "RACE": "WHITE",
      "RACEN": 1.0,
      "SEX": "F",
      "TRTSDT": 19575.0,
      "TRTEDT": 19767.0,
      "TRTDUR": 193.0,
      "TRTP": "Xanomeline Low Dose",
      "TRTA": "Xanomeline Low Dose",
      "TRTAN": 54.0,
      "PARAM": "Time to First Dermatologic Event",
      "PARAMCD": "TTDE",
      "AVAL": 119.0,
      "STARTDT": 19575.0,
      "ADT": 19693.0,
      "CNSR": 5.397605346934028e-79,
      "EVNTDESC": "Dematologic Event Occured",
      "SRCDOM": "ADAE",
      "SRCVAR": "ASTDT",
      "SRCSEQ": 3.0,
      "SAFFL": "Y"
    },
    {
      "STUDYID": "CDISCPILOT01",
      "SITEID": "708",
      "USUBJID": "01-708-1353",
      "AGE": 87.0,
      "AGEGR1": ">80",
      "AGEGR1N": 3.0,
      "RACE": "BLACK OR AFRICAN AMERICAN",
      "RACEN": 2.0,
      "SEX": "F",
      "TRTSDT": 19543.0,
      "TRTEDT": 19598.0,
      "TRTDUR": 56.0,
      "TRTP": "Xanomeline Low Dose",
      "TRTA": "Xanomeline Low Dose",
      "TRTAN": 54.0,
      "PARAM": "Time to First Dermatologic Event",
      "PARAMCD": "TTDE",
      "AVAL": 69.0,
      "STARTDT": 19543.0,
      "ADT": 19611.0,
      "CNSR": 1.0,
      "EVNTDESC": "Study Completion Date",
      "SRCDOM": "ADSL",
      "SRCVAR": "RFENDT",
      "SRCSEQ": null,
      "SAFFL": "Y"
    },
    {
      "STUDYID": "CDISCPILOT01",
      "SITEID": "708",
      "USUBJID": "01-708-1372",
      "AGE": 84.0,
      "AGEGR1": ">80",
      "AGEGR1N": 3.0,
      "RACE": "WHITE",
      "RACEN": 1.0,
      "SEX": "M",
      "TRTSDT": 19460.0,
      "TRTEDT": 19467.0,
      "TRTDUR": 8.0,
      "TRTP": "Xanomeline High Dose",
      "TRTA": "Xanomeline High Dose",
      "TRTAN": 81.0,
      "PARAM": "Time to First Dermatologic Event",
      "PARAMCD": "TTDE",
      "AVAL": 29.0,
      "STARTDT": 19460.0,
      "ADT": 19488.0,
      "CNSR": 1.0,
      "EVNTDESC": "Study Completion Date",
      "SRCDOM": "ADSL",
      "SRCVAR": "RFENDT",
      "SRCSEQ": null,
      "SAFFL": "Y"
    },
    {
      "STUDYID": "CDISCPILOT01",
      "SITEID": "708",
      "USUBJID": "01-708-1378",
      "AGE": 67.0,
      "AGEGR1": "65-80",
      "AGEGR1N": 2.0,
      "RACE": "BLACK OR AFRICAN AMERICAN",
      "RACEN": 2.0,
      "SEX": "M",
      "TRTSDT": 19604.0,
      "TRTEDT": 19751.0,
      "TRTDUR": 148.0,
      "TRTP": "Placebo",
      "TRTA": "Placebo",
      "TRTAN": 5.397605346934028e-79,
      "PARAM": "Time to First Dermatologic Event",
      "PARAMCD": "TTDE",
      "AVAL": 148.0,
      "STARTDT": 19604.0,
      "ADT": 19751.0,
      "CNSR": 1.0,
      "EVNTDESC": "Study Completion Date",
      "SRCDOM": "ADSL",
      "SRCVAR": "RFENDT",
      "SRCSEQ": null,
      "SAFFL": "Y"
    },
    {
      "STUDYID": "CDISCPILOT01",
      "SITEID": "708",
      "USUBJID": "01-708-1406",
      "AGE": 71.0,
      "AGEGR1": "65-80",
      "AGEGR1N": 2.0,
      "RACE": "WHITE",
      "RACEN": 1.0,
      "SEX": "F",
      "TRTSDT": 19718.0,
      "TRTEDT": 19906.0,
      "TRTDUR": 189.0,
      "TRTP": "Xanomeline High Dose",
      "TRTA": "Xanomeline High Dose",
      "TRTAN": 81.0,
      "PARAM": "Time to First Dermatologic Event",
      "PARAMCD": "TTDE",
      "AVAL": 189.0,
      "STARTDT": 19718.0,
      "ADT": 19906.0,
      "CNSR": 1.0,
      "EVNTDESC": "Study Completion Date",
      "SRCDOM": "ADSL",
      "SRCVAR": "RFENDT",
      "SRCSEQ": null,
      "SAFFL": "Y"
    },
    {
      "STUDYID": "CDISCPILOT01",
      "SITEID": "708",
      "USUBJID": "01-708-1428",
      "AGE": 84.0,
      "AGEGR1": ">80",
      "AGEGR1N": 3.0,
      "RACE": "WHITE",
      "RACEN": 1.0,
      "SEX": "F",
      "TRTSDT": 19671.0,
      "TRTEDT": 19706.0,
      "TRTDUR": 36.0,
      "TRTP": "Xanomeline Low Dose",
      "TRTA": "Xanomeline Low Dose",
      "TRTAN": 54.0,
      "PARAM": "Time to First Dermatologic Event",
      "PARAMCD": "TTDE",
      "AVAL": 32.0,
      "STARTDT": 19671.0,
      "ADT": 19702.0,
      "CNSR": 5.397605346934028e-79,
      "EVNTDESC": "Dematologic Event Occured",
      "SRCDOM": "ADAE",
      "SRCVAR": "ASTDT",
      "SRCSEQ": 2.0,
      "SAFFL": "Y"
    },
    {
      "STUDYID": "CDISCPILOT01",
      "SITEID": "709",
      "USUBJID": "01-709-1001",
      "AGE": 76.0,
      "AGEGR1": "65-80",
      "AGEGR1N": 2.0,
      "RACE": "WHITE",
      "RACEN": 1.0,
      "SEX": "F",
      "TRTSDT": 19639.0,
      "TRTEDT": 19821.0,
      "TRTDUR": 183.0,
      "TRTP": "Placebo",
      "TRTA": "Placebo",
      "TRTAN": 5.397605346934028e-79,
      "PARAM": "Time to First Dermatologic Event",
      "PARAMCD": "TTDE",
      "AVAL": 183.0,
      "STARTDT": 19639.0,
      "ADT": 19821.0,
      "CNSR": 1.0,
      "EVNTDESC": "Study Completion Date",
      "SRCDOM": "ADSL",
      "SRCVAR": "RFENDT",
      "SRCSEQ": null,
      "SAFFL": "Y"
    },
    {
      "STUDYID": "CDISCPILOT01",
      "SITEID": "709",
      "USUBJID": "01-709-1007",
      "AGE": 54.0,
      "AGEGR1": "<65",
      "AGEGR1N": 1.0,
      "RACE": "WHITE",
      "RACEN": 1.0,
      "SEX": "F",
      "TRTSDT": 19205.0,
      "TRTEDT": 19233.0,
      "TRTDUR": 29.0,
      "TRTP": "Xanomeline Low Dose",
      "TRTA": "Xanomeline Low Dose",
      "TRTAN": 54.0,
      "PARAM": "Time to First Dermatologic Event",
      "PARAMCD": "TTDE",
      "AVAL": 17.0,
      "STARTDT": 19205.0,
      "ADT": 19221.0,
      "CNSR": 5.397605346934028e-79,
      "EVNTDESC": "Dematologic Event Occured",
      "SRCDOM": "ADAE",
      "SRCVAR": "ASTDT",
      "SRCSEQ": 1.0,
      "SAFFL": "Y"
    },
    {
      "STUDYID": "CDISCPILOT01",
      "SITEID": "709",
      "USUBJID": "01-709-1020",
      "AGE": 72.0,
      "AGEGR1": "65-80",
      "AGEGR1N": 2.0,
      "RACE": "WHITE",
      "RACEN": 1.0,
      "SEX": "F",
      "TRTSDT": 19328.0,
      "TRTEDT": 19510.0,
      "TRTDUR": 183.0,
      "TRTP": "Xanomeline Low Dose",
      "TRTA": "Xanomeline Low Dose",
      "TRTAN": 54.0,
      "PARAM": "Time to First Dermatologic Event",
      "PARAMCD": "TTDE",
      "AVAL": 27.0,
      "STARTDT": 19328.0,
      "ADT": 19354.0,
      "CNSR": 5.397605346934028e-79,
      "EVNTDESC": "Dematologic Event Occured",
      "SRCDOM": "ADAE",
      "SRCVAR": "ASTDT",
      "SRCSEQ": 1.0,
      "SAFFL": "Y"
    },
    {
      "STUDYID": "CDISCPILOT01",
      "SITEID": "709",
      "USUBJID": "01-709-1029",
      "AGE": 82.0,
      "AGEGR1": ">80",
      "AGEGR1N": 3.0,
      "RACE": "WHITE",
      "RACEN": 1.0,
      "SEX": "M",
      "TRTSDT": 19352.0,
      "TRTEDT": 19535.0,
      "TRTDUR": 184.0,
      "TRTP": "Xanomeline High Dose",
      "TRTA": "Xanomeline High Dose",
      "TRTAN": 81.0,
      "PARAM": "Time to First Dermatologic Event",
      "PARAMCD": "TTDE",
      "AVAL": 24.0,
      "STARTDT": 19352.0,
      "ADT": 19375.0,
      "CNSR": 5.397605346934028e-79,
      "EVNTDESC": "Dematologic Event Occured",
      "SRCDOM": "ADAE",
      "SRCVAR": "ASTDT",
      "SRCSEQ": 2.0,
      "SAFFL": "Y"
    },
    {
      "STUDYID": "CDISCPILOT01",
      "SITEID": "709",
      "USUBJID": "01-709-1081",
      "AGE": 86.0,
      "AGEGR1": ">80",
      "AGEGR1N": 3.0,
      "RACE": "WHITE",
      "RACEN": 1.0,
      "SEX": "F",
      "TRTSDT": 19741.0,
      "TRTEDT": 19840.0,
      "TRTDUR": 100.0,
      "TRTP": "Xanomeline Low Dose",
      "TRTA": "Xanomeline Low Dose",
      "TRTAN": 54.0,
      "PARAM": "Time to First Dermatologic Event",
      "PARAMCD": "TTDE",
      "AVAL": 80.0,
      "STARTDT": 19741.0,
      "ADT": 19820.0,
      "CNSR": 5.397605346934028e-79,
      "EVNTDESC": "Dematologic Event Occured",
      "SRCDOM": "ADAE",
      "SRCVAR": "ASTDT",
      "SRCSEQ": 1.0,
      "SAFFL": "Y"
    },
    {
      "STUDYID": "CDISCPILOT01",
      "SITEID": "709",
      "USUBJID": "01-709-1088",
      "AGE": 69.0,
      "AGEGR1": "65-80",
      "AGEGR1N": 2.0,
      "RACE": "WHITE",
      "RACEN": 1.0,
      "SEX": "M",
      "TRTSDT": 19825.0,
      "TRTEDT": 20005.0,
      "TRTDUR": 181.0,
      "TRTP": "Placebo",
      "TRTA": "Placebo",
      "TRTAN": 5.397605346934028e-79,
      "PARAM": "Time to First Dermatologic Event",
      "PARAMCD": "TTDE",
      "AVAL": 27.0,
      "STARTDT": 19825.0,
      "ADT": 19851.0,
      "CNSR": 5.397605346934028e-79,
      "EVNTDESC": "Dematologic Event Occured",
      "SRCDOM": "ADAE",
      "SRCVAR": "ASTDT",
      "SRCSEQ": 1.0,
      "SAFFL": "Y"
    },
    {
      "STUDYID": "CDISCPILOT01",
      "SITEID": "709",
      "USUBJID": "01-709-1099",
      "AGE": 79.0,
      "AGEGR1": "65-80",
      "AGEGR1N": 2.0,
      "RACE": "WHITE",
      "RACEN": 1.0,
      "SEX": "F",
      "TRTSDT": 19656.0,
      "TRTEDT": 19838.0,
      "TRTDUR": 183.0,
      "TRTP": "Xanomeline High Dose",
      "TRTA": "Xanomeline High Dose",
      "TRTAN": 81.0,
      "PARAM": "Time to First Dermatologic Event",
      "PARAMCD": "TTDE",
      "AVAL": 19.0,
      "STARTDT": 19656.0,
      "ADT": 19674.0,
      "CNSR": 5.397605346934028e-79,
      "EVNTDESC": "Dematologic Event Occured",
      "SRCDOM": "ADAE",
      "SRCVAR": "ASTDT",
      "SRCSEQ": 2.0,
      "SAFFL": "Y"
    },
    {
      "STUDYID": "CDISCPILOT01",
      "SITEID": "709",
      "USUBJID": "01-709-1102",
      "AGE": 71.0,
      "AGEGR1": "65-80",
      "AGEGR1N": 2.0,
      "RACE": "WHITE",
      "RACEN": 1.0,
      "SEX": "F",
      "TRTSDT": 19373.0,
      "TRTEDT": 19444.0,
      "TRTDUR": 72.0,
      "TRTP": "Xanomeline Low Dose",
      "TRTA": "Xanomeline Low Dose",
      "TRTAN": 54.0,
      "PARAM": "Time to First Dermatologic Event",
      "PARAMCD": "TTDE",
      "AVAL": 28.0,
      "STARTDT": 19373.0,
      "ADT": 19400.0,
      "CNSR": 5.397605346934028e-79,
      "EVNTDESC": "Dematologic Event Occured",
      "SRCDOM": "ADAE",
      "SRCVAR": "ASTDT",
      "SRCSEQ": 1.0,
      "SAFFL": "Y"
    },
    {
      "STUDYID": "CDISCPILOT01",
      "SITEID": "709",
      "USUBJID": "01-709-1168",
      "AGE": 72.0,
      "AGEGR1": "65-80",
      "AGEGR1N": 2.0,
      "RACE": "WHITE",
      "RACEN": 1.0,
      "SEX": "F",
      "TRTSDT": 19572.0,
      "TRTEDT": 19627.0,
      "TRTDUR": 56.0,
      "TRTP": "Xanomeline High Dose",
      "TRTA": "Xanomeline High Dose",
      "TRTAN": 81.0,
      "PARAM": "Time to First Dermatologic Event",
      "PARAMCD": "TTDE",
      "AVAL": 16.0,
      "STARTDT": 19572.0,
      "ADT": 19587.0,
      "CNSR": 5.397605346934028e-79,
      "EVNTDESC": "Dematologic Event Occured",
      "SRCDOM": "ADAE",
      "SRCVAR": "ASTDT",
      "SRCSEQ": 1.0,
      "SAFFL": "Y"
    },
    {
      "STUDYID": "CDISCPILOT01",
      "SITEID": "709",
      "USUBJID": "01-709-1217",
      "AGE": 77.0,
      "AGEGR1": "65-80",
      "AGEGR1N": 2.0,
      "RACE": "WHITE",
      "RACEN": 1.0,
      "SEX": "M",
      "TRTSDT": 19421.0,
      "TRTEDT": 19520.0,
      "TRTDUR": 100.0,
      "TRTP": "Xanomeline Low Dose",
      "TRTA": "Xanomeline Low Dose",
      "TRTAN": 54.0,
      "PARAM": "Time to First Dermatologic Event",
      "PARAMCD": "TTDE",
      "AVAL": 23.0,
      "STARTDT": 19421.0,
      "ADT": 19443.0,
      "CNSR": 5.397605346934028e-79,
      "EVNTDESC": "Dematologic Event Occured",
      "SRCDOM": "ADAE",
      "SRCVAR": "ASTDT",
      "SRCSEQ": 3.0,
      "SAFFL": "Y"
    },
    {
      "STUDYID": "CDISCPILOT01",
      "SITEID": "709",
      "USUBJID": "01-709-1238",
      "AGE": 69.0,
      "AGEGR1": "65-80",
      "AGEGR1N": 2.0,
      "RACE": "WHITE",
      "RACEN": 1.0,
      "SEX": "M",
      "TRTSDT": 19493.0,
      "TRTEDT": 19576.0,
      "TRTDUR": 84.0,
      "TRTP": "Xanomeline High Dose",
      "TRTA": "Xanomeline High Dose",
      "TRTAN": 81.0,
      "PARAM": "Time to First Dermatologic Event",
      "PARAMCD": "TTDE",
      "AVAL": 16.0,
      "STARTDT": 19493.0,
      "ADT": 19508.0,
      "CNSR": 5.397605346934028e-79,
      "EVNTDESC": "Dematologic Event Occured",
      "SRCDOM": "ADAE",
      "SRCVAR": "ASTDT",
      "SRCSEQ": 2.0,
      "SAFFL": "Y"
    },
    {
      "STUDYID": "CDISCPILOT01",
      "SITEID": "709",
      "USUBJID": "01-709-1259",
      "AGE": 82.0,
      "AGEGR1": ">80",
      "AGEGR1N": 3.0,
      "RACE": "WHITE",
      "RACEN": 1.0,
      "SEX": "M",
      "TRTSDT": 19384.0,
      "TRTEDT": 19522.0,
      "TRTDUR": 139.0,
      "TRTP": "Placebo",
      "TRTA": "Placebo",
      "TRTAN": 5.397605346934028e-79,
      "PARAM": "Time to First Dermatologic Event",
      "PARAMCD": "TTDE",
      "AVAL": 139.0,
      "STARTDT": 19384.0,
      "ADT": 19522.0,
      "CNSR": 1.0,
      "EVNTDESC": "Study Completion Date",
      "SRCDOM": "ADSL",
      "SRCVAR": "RFENDT",
      "SRCSEQ": null,
      "SAFFL": "Y"
    },
    {
      "STUDYID": "CDISCPILOT01",
      "SITEID": "709",
      "USUBJID": "01-709-1285",
      "AGE": 87.0,
      "AGEGR1": ">80",
      "AGEGR1N": 3.0,
      "RACE": "WHITE",
      "RACEN": 1.0,
      "SEX": "M",
      "TRTSDT": 19441.0,
      "TRTEDT": 19501.0,
      "TRTDUR": 61.0,
      "TRTP": "Xanomeline Low Dose",
      "TRTA": "Xanomeline Low Dose",
      "TRTAN": 54.0,
      "PARAM": "Time to First Dermatologic Event",
      "PARAMCD": "TTDE",
      "AVAL": 27.0,
      "STARTDT": 19441.0,
      "ADT": 19467.0,
      "CNSR": 5.397605346934028e-79,
      "EVNTDESC": "Dematologic Event Occured",
      "SRCDOM": "ADAE",
      "SRCVAR": "ASTDT",
      "SRCSEQ": 2.0,
      "SAFFL": "Y"
    },
    {
      "STUDYID": "CDISCPILOT01",
      "SITEID": "709",
      "USUBJID": "01-709-1301",
      "AGE": 62.0,
      "AGEGR1": "<65",
      "AGEGR1N": 1.0,
      "RACE": "WHITE",
      "RACEN": 1.0,
      "SEX": "F",
      "TRTSDT": 19558.0,
      "TRTEDT": 19740.0,
      "TRTDUR": 183.0,
      "TRTP": "Placebo",
      "TRTA": "Placebo",
      "TRTAN": 5.397605346934028e-79,
      "PARAM": "Time to First Dermatologic Event",
      "PARAMCD": "TTDE",
      "AVAL": 183.0,
      "STARTDT": 19558.0,
      "ADT": 19740.0,
      "CNSR": 1.0,
      "EVNTDESC": "Study Completion Date",
      "SRCDOM": "ADSL",
      "SRCVAR": "RFENDT",
      "SRCSEQ": null,
      "SAFFL": "Y"
    },
    {
      "STUDYID": "CDISCPILOT01",
      "SITEID": "709",
      "USUBJID": "01-709-1306",
      "AGE": 60.0,
      "AGEGR1": "<65",
      "AGEGR1N": 1.0,
      "RACE": "WHITE",
      "RACEN": 1.0,
      "SEX": "F",
      "TRTSDT": 19757.0,
      "TRTEDT": 19890.0,
      "TRTDUR": 134.0,
      "TRTP": "Placebo",
      "TRTA": "Placebo",
      "TRTAN": 5.397605346934028e-79,
      "PARAM": "Time to First Dermatologic Event",
      "PARAMCD": "TTDE",
      "AVAL": 77.0,
      "STARTDT": 19757.0,
      "ADT": 19833.0,
      "CNSR": 5.397605346934028e-79,
      "EVNTDESC": "Dematologic Event Occured",
      "SRCDOM": "ADAE",
      "SRCVAR": "ASTDT",
      "SRCSEQ": 1.0,
      "SAFFL": "Y"
    },
    {
      "STUDYID": "CDISCPILOT01",
      "SITEID": "709",
      "USUBJID": "01-709-1309",
      "AGE": 65.0,
      "AGEGR1": "65-80",
      "AGEGR1N": 2.0,
      "RACE": "WHITE",
      "RACEN": 1.0,
      "SEX": "M",
      "TRTSDT": 19528.0,
      "TRTEDT": 19711.0,
      "TRTDUR": 184.0,
      "TRTP": "Xanomeline High Dose",
      "TRTA": "Xanomeline High Dose",
      "TRTAN": 81.0,
      "PARAM": "Time to First Dermatologic Event",
      "PARAMCD": "TTDE",
      "AVAL": 2.0,
      "STARTDT": 19528.0,
      "ADT": 19529.0,
      "CNSR": 5.397605346934028e-79,
      "EVNTDESC": "Dematologic Event Occured",
      "SRCDOM": "ADAE",
      "SRCVAR": "ASTDT",
      "SRCSEQ": 7.0,
      "SAFFL": "Y"
    },
    {
      "STUDYID": "CDISCPILOT01",
      "SITEID": "709",
      "USUBJID": "01-709-1312",
      "AGE": 68.0,
      "AGEGR1": "65-80",
      "AGEGR1N": 2.0,
      "RACE": "WHITE",
      "RACEN": 1.0,
      "SEX": "F",
      "TRTSDT": 19833.0,
      "TRTEDT": 20015.0,
      "TRTDUR": 183.0,
      "TRTP": "Placebo",
      "TRTA": "Placebo",
      "TRTAN": 5.397605346934028e-79,
      "PARAM": "Time to First Dermatologic Event",
      "PARAMCD": "TTDE",
      "AVAL": 28.0,
      "STARTDT": 19833.0,
      "ADT": 19860.0,
      "CNSR": 5.397605346934028e-79,
      "EVNTDESC": "Dematologic Event Occured",
      "SRCDOM": "ADAE",
      "SRCVAR": "ASTDT",
      "SRCSEQ": 1.0,
      "SAFFL": "Y"
    },
    {
      "STUDYID": "CDISCPILOT01",
      "SITEID": "709",
      "USUBJID": "01-709-1326",
      "AGE": 75.0,
      "AGEGR1": "65-80",
      "AGEGR1N": 2.0,
      "RACE": "WHITE",
      "RACEN": 1.0,
      "SEX": "F",
      "TRTSDT": 19453.0,
      "TRTEDT": 19633.0,
      "TRTDUR": 181.0,
      "TRTP": "Xanomeline Low Dose",
      "TRTA": "Xanomeline Low Dose",
      "TRTAN": 54.0,
      "PARAM": "Time to First Dermatologic Event",
      "PARAMCD": "TTDE",
      "AVAL": 27.0,
      "STARTDT": 19453.0,
      "ADT": 19479.0,
      "CNSR": 5.397605346934028e-79,
      "EVNTDESC": "Dematologic Event Occured",
      "SRCDOM": "ADAE",
      "SRCVAR": "ASTDT",
      "SRCSEQ": 1.0,
      "SAFFL": "Y"
    },
    {
      "STUDYID": "CDISCPILOT01",
      "SITEID": "709",
      "USUBJID": "01-709-1329",
      "AGE": 70.0,
      "AGEGR1": "65-80",
      "AGEGR1N": 2.0,
      "RACE": "WHITE",
      "RACEN": 1.0,
      "SEX": "M",
      "TRTSDT": 19585.0,
      "TRTEDT": 19595.0,
      "TRTDUR": 11.0,
      "TRTP": "Xanomeline High Dose",
      "TRTA": "Xanomeline High Dose",
      "TRTAN": 81.0,
      "PARAM": "Time to First Dermatologic Event",
      "PARAMCD": "TTDE",
      "AVAL": 15.0,
      "STARTDT": 19585.0,
      "ADT": 19599.0,
      "CNSR": 1.0,
      "EVNTDESC": "Study Completion Date",
      "SRCDOM": "ADSL",
      "SRCVAR": "RFENDT",
      "SRCSEQ": null,
      "SAFFL": "Y"
    },
    {
      "STUDYID": "CDISCPILOT01",
      "SITEID": "709",
      "USUBJID": "01-709-1339",
      "AGE": 81.0,
      "AGEGR1": ">80",
      "AGEGR1N": 3.0,
      "RACE": "WHITE",
      "RACEN": 1.0,
      "SEX": "M",
      "TRTSDT": 19350.0,
      "TRTEDT": 19533.0,
      "TRTDUR": 184.0,
      "TRTP": "Placebo",
      "TRTA": "Placebo",
      "TRTAN": 5.397605346934028e-79,
      "PARAM": "Time to First Dermatologic Event",
      "PARAMCD": "TTDE",
      "AVAL": 184.0,
      "STARTDT": 19350.0,
      "ADT": 19533.0,
      "CNSR": 1.0,
      "EVNTDESC": "Study Completion Date",
      "SRCDOM": "ADSL",
      "SRCVAR": "RFENDT",
      "SRCSEQ": null,
      "SAFFL": "Y"
    },
    {
      "STUDYID": "CDISCPILOT01",
      "SITEID": "709",
      "USUBJID": "01-709-1424",
      "AGE": 77.0,
      "AGEGR1": "65-80",
      "AGEGR1N": 2.0,
      "RACE": "WHITE",
      "RACEN": 1.0,
      "SEX": "M",
      "TRTSDT": 19420.0,
      "TRTEDT": 19424.0,
      "TRTDUR": 5.0,
      "TRTP": "Xanomeline High Dose",
      "TRTA": "Xanomeline High Dose",
      "TRTAN": 81.0,
      "PARAM": "Time to First Dermatologic Event",
      "PARAMCD": "TTDE",
      "AVAL": 6.0,
      "STARTDT": 19420.0,
      "ADT": 19425.0,
      "CNSR": 1.0,
      "EVNTDESC": "Study Completion Date",
      "SRCDOM": "ADSL",
      "SRCVAR": "RFENDT",
      "SRCSEQ": null,
      "SAFFL": "Y"
    },
    {
      "STUDYID": "CDISCPILOT01",
      "SITEID": "710",
      "USUBJID": "01-710-1002",
      "AGE": 88.0,
      "AGEGR1": ">80",
      "AGEGR1N": 3.0,
      "RACE": "WHITE",
      "RACEN": 1.0,
      "SEX": "M",
      "TRTSDT": 19737.0,
      "TRTEDT": 19741.0,
      "TRTDUR": 5.0,
      "TRTP": "Xanomeline Low Dose",
      "TRTA": "Xanomeline Low Dose",
      "TRTAN": 54.0,
      "PARAM": "Time to First Dermatologic Event",
      "PARAMCD": "TTDE",
      "AVAL": 5.0,
      "STARTDT": 19737.0,
      "ADT": 19741.0,
      "CNSR": 1.0,
      "EVNTDESC": "Study Completion Date",
      "SRCDOM": "ADSL",
      "SRCVAR": "RFENDT",
      "SRCSEQ": null,
      "SAFFL": "Y"
    },
    {
      "STUDYID": "CDISCPILOT01",
      "SITEID": "710",
      "USUBJID": "01-710-1006",
      "AGE": 77.0,
      "AGEGR1": "65-80",
      "AGEGR1N": 2.0,
      "RACE": "WHITE",
      "RACEN": 1.0,
      "SEX": "M",
      "TRTSDT": 19399.0,
      "TRTEDT": 19579.0,
      "TRTDUR": 181.0,
      "TRTP": "Xanomeline High Dose",
      "TRTA": "Xanomeline High Dose",
      "TRTAN": 81.0,
      "PARAM": "Time to First Dermatologic Event",
      "PARAMCD": "TTDE",
      "AVAL": 20.0,
      "STARTDT": 19399.0,
      "ADT": 19418.0,
      "CNSR": 5.397605346934028e-79,
      "EVNTDESC": "Dematologic Event Occured",
      "SRCDOM": "ADAE",
      "SRCVAR": "ASTDT",
      "SRCSEQ": 3.0,
      "SAFFL": "Y"
    },
    {
      "STUDYID": "CDISCPILOT01",
      "SITEID": "710",
      "USUBJID": "01-710-1021",
      "AGE": 79.0,
      "AGEGR1": "65-80",
      "AGEGR1N": 2.0,
      "RACE": "BLACK OR AFRICAN AMERICAN",
      "RACEN": 2.0,
      "SEX": "M",
      "TRTSDT": 19628.0,
      "TRTEDT": 19660.0,
      "TRTDUR": 33.0,
      "TRTP": "Xanomeline High Dose",
      "TRTA": "Xanomeline High Dose",
      "TRTAN": 81.0,
      "PARAM": "Time to First Dermatologic Event",
      "PARAMCD": "TTDE",
      "AVAL": 25.0,
      "STARTDT": 19628.0,
      "ADT": 19652.0,
      "CNSR": 5.397605346934028e-79,
      "EVNTDESC": "Dematologic Event Occured",
      "SRCDOM": "ADAE",
      "SRCVAR": "ASTDT",
      "SRCSEQ": 2.0,
      "SAFFL": "Y"
    },
    {
      "STUDYID": "CDISCPILOT01",
      "SITEID": "710",
      "USUBJID": "01-710-1027",
      "AGE": 83.0,
      "AGEGR1": ">80",
      "AGEGR1N": 3.0,
      "RACE": "WHITE",
      "RACEN": 1.0,
      "SEX": "M",
      "TRTSDT": 19782.0,
      "TRTEDT": 19964.0,
      "TRTDUR": 183.0,
      "TRTP": "Placebo",
      "TRTA": "Placebo",
      "TRTAN": 5.397605346934028e-79,
      "PARAM": "Time to First Dermatologic Event",
      "PARAMCD": "TTDE",
      "AVAL": 183.0,
      "STARTDT": 19782.0,
      "ADT": 19964.0,
      "CNSR": 1.0,
      "EVNTDESC": "Study Completion Date",
      "SRCDOM": "ADSL",
      "SRCVAR": "RFENDT",
      "SRCSEQ": null,
      "SAFFL": "Y"
    },
    {
      "STUDYID": "CDISCPILOT01",
      "SITEID": "710",
      "USUBJID": "01-710-1045",
      "AGE": 83.0,
      "AGEGR1": ">80",
      "AGEGR1N": 3.0,
      "RACE": "WHITE",
      "RACEN": 1.0,
      "SEX": "F",
      "TRTSDT": 19512.0,
      "TRTEDT": 19583.0,
      "TRTDUR": 72.0,
      "TRTP": "Xanomeline Low Dose",
      "TRTA": "Xanomeline Low Dose",
      "TRTAN": 54.0,
      "PARAM": "Time to First Dermatologic Event",
      "PARAMCD": "TTDE",
      "AVAL": 30.0,
      "STARTDT": 19512.0,
      "ADT": 19541.0,
      "CNSR": 5.397605346934028e-79,
      "EVNTDESC": "Dematologic Event Occured",
      "SRCDOM": "ADAE",
      "SRCVAR": "ASTDT",
      "SRCSEQ": 3.0,
      "SAFFL": "Y"
    },
    {
      "STUDYID": "CDISCPILOT01",
      "SITEID": "710",
      "USUBJID": "01-710-1053",
      "AGE": 84.0,
      "AGEGR1": ">80",
      "AGEGR1N": 3.0,
      "RACE": "WHITE",
      "RACEN": 1.0,
      "SEX": "F",
      "TRTSDT": 19353.0,
      "TRTEDT": 19399.0,
      "TRTDUR": 47.0,
      "TRTP": "Xanomeline Low Dose",
      "TRTA": "Xanomeline Low Dose",
      "TRTAN": 54.0,
      "PARAM": "Time to First Dermatologic Event",
      "PARAMCD": "TTDE",
      "AVAL": 34.0,
      "STARTDT": 19353.0,
      "ADT": 19386.0,
      "CNSR": 5.397605346934028e-79,
      "EVNTDESC": "Dematologic Event Occured",
      "SRCDOM": "ADAE",
      "SRCVAR": "ASTDT",
      "SRCSEQ": 1.0,
      "SAFFL": "Y"
    },
    {
      "STUDYID": "CDISCPILOT01",
      "SITEID": "710",
      "USUBJID": "01-710-1060",
      "AGE": 82.0,
      "AGEGR1": ">80",
      "AGEGR1N": 3.0,
      "RACE": "WHITE",
      "RACEN": 1.0,
      "SEX": "M",
      "TRTSDT": 19359.0,
      "TRTEDT": 19544.0,
      "TRTDUR": 186.0,
      "TRTP": "Placebo",
      "TRTA": "Placebo",
      "TRTAN": 5.397605346934028e-79,
      "PARAM": "Time to First Dermatologic Event",
      "PARAMCD": "TTDE",
      "AVAL": 21.0,
      "STARTDT": 19359.0,
      "ADT": 19379.0,
      "CNSR": 5.397605346934028e-79,
      "EVNTDESC": "Dematologic Event Occured",
      "SRCDOM": "ADAE",
      "SRCVAR": "ASTDT",
      "SRCSEQ": 4.0,
      "SAFFL": "Y"
    },
    {
      "STUDYID": "CDISCPILOT01",
      "SITEID": "710",
      "USUBJID": "01-710-1070",
      "AGE": 85.0,
      "AGEGR1": ">80",
      "AGEGR1N": 3.0,
      "RACE": "WHITE",
      "RACEN": 1.0,
      "SEX": "F",
      "TRTSDT": 19244.0,
      "TRTEDT": 19380.0,
      "TRTDUR": 137.0,
      "TRTP": "Xanomeline High Dose",
      "TRTA": "Xanomeline High Dose",
      "TRTAN": 81.0,
      "PARAM": "Time to First Dermatologic Event",
      "PARAMCD": "TTDE",
      "AVAL": 96.0,
      "STARTDT": 19244.0,
      "ADT": 19339.0,
      "CNSR": 5.397605346934028e-79,
      "EVNTDESC": "Dematologic Event Occured",
      "SRCDOM": "ADAE",
      "SRCVAR": "ASTDT",
      "SRCSEQ": 2.0,
      "SAFFL": "Y"
    },
    {
      "STUDYID": "CDISCPILOT01",
      "SITEID": "710",
      "USUBJID": "01-710-1077",
      "AGE": 76.0,
      "AGEGR1": "65-80",
      "AGEGR1N": 2.0,
      "RACE": "WHITE",
      "RACEN": 1.0,
      "SEX": "F",
      "TRTSDT": 19679.0,
      "TRTEDT": 19861.0,
      "TRTDUR": 183.0,
      "TRTP": "Placebo",
      "TRTA": "Placebo",
      "TRTAN": 5.397605346934028e-79,
      "PARAM": "Time to First Dermatologic Event",
      "PARAMCD": "TTDE",
      "AVAL": 26.0,
      "STARTDT": 19679.0,
      "ADT": 19704.0,
      "CNSR": 5.397605346934028e-79,
      "EVNTDESC": "Dematologic Event Occured",
      "SRCDOM": "ADAE",
      "SRCVAR": "ASTDT",
      "SRCSEQ": 1.0,
      "SAFFL": "Y"
    },
    {
      "STUDYID": "CDISCPILOT01",
      "SITEID": "710",
      "USUBJID": "01-710-1078",
      "AGE": 81.0,
      "AGEGR1": ">80",
      "AGEGR1N": 3.0,
      "RACE": "WHITE",
      "RACEN": 1.0,
      "SEX": "F",
      "TRTSDT": 19618.0,
      "TRTEDT": 19805.0,
      "TRTDUR": 188.0,
      "TRTP": "Placebo",
      "TRTA": "Placebo",
      "TRTAN": 5.397605346934028e-79,
      "PARAM": "Time to First Dermatologic Event",
      "PARAMCD": "TTDE",
      "AVAL": 188.0,
      "STARTDT": 19618.0,
      "ADT": 19805.0,
      "CNSR": 1.0,
      "EVNTDESC": "Study Completion Date",
      "SRCDOM": "ADSL",
      "SRCVAR": "RFENDT",
      "SRCSEQ": null,
      "SAFFL": "Y"
    },
    {
      "STUDYID": "CDISCPILOT01",
      "SITEID": "710",
      "USUBJID": "01-710-1083",
      "AGE": 89.0,
      "AGEGR1": ">80",
      "AGEGR1N": 3.0,
      "RACE": "WHITE",
      "RACEN": 1.0,
      "SEX": "F",
      "TRTSDT": 19561.0,
      "TRTEDT": 19571.0,
      "TRTDUR": 11.0,
      "TRTP": "Placebo",
      "TRTA": "Placebo",
      "TRTAN": 5.397605346934028e-79,
      "PARAM": "Time to First Dermatologic Event",
      "PARAMCD": "TTDE",
      "AVAL": 13.0,
      "STARTDT": 19561.0,
      "ADT": 19573.0,
      "CNSR": 1.0,
      "EVNTDESC": "Study Completion Date",
      "SRCDOM": "ADSL",
      "SRCVAR": "RFENDT",
      "SRCSEQ": null,
      "SAFFL": "Y"
    },
    {
      "STUDYID": "CDISCPILOT01",
      "SITEID": "710",
      "USUBJID": "01-710-1137",
      "AGE": 79.0,
      "AGEGR1": "65-80",
      "AGEGR1N": 2.0,
      "RACE": "BLACK OR AFRICAN AMERICAN",
      "RACEN": 2.0,
      "SEX": "F",
      "TRTSDT": 19642.0,
      "TRTEDT": 19675.0,
      "TRTDUR": 34.0,
      "TRTP": "Xanomeline High Dose",
      "TRTA": "Xanomeline High Dose",
      "TRTAN": 81.0,
      "PARAM": "Time to First Dermatologic Event",
      "PARAMCD": "TTDE",
      "AVAL": 3.0,
      "STARTDT": 19642.0,
      "ADT": 19644.0,
      "CNSR": 5.397605346934028e-79,
      "EVNTDESC": "Dematologic Event Occured",
      "SRCDOM": "ADAE",
      "SRCVAR": "ASTDT",
      "SRCSEQ": 1.0,
      "SAFFL": "Y"
    },
    {
      "STUDYID": "CDISCPILOT01",
      "SITEID": "710",
      "USUBJID": "01-710-1142",
      "AGE": 76.0,
      "AGEGR1": "65-80",
      "AGEGR1N": 2.0,
      "RACE": "WHITE",
      "RACEN": 1.0,
      "SEX": "F",
      "TRTSDT": 19268.0,
      "TRTEDT": 19286.0,
      "TRTDUR": 19.0,
      "TRTP": "Xanomeline High Dose",
      "TRTA": "Xanomeline High Dose",
      "TRTAN": 81.0,
      "PARAM": "Time to First Dermatologic Event",
      "PARAMCD": "TTDE",
      "AVAL": 22.0,
      "STARTDT": 19268.0,
      "ADT": 19289.0,
      "CNSR": 1.0,
      "EVNTDESC": "Study Completion Date",
      "SRCDOM": "ADSL",
      "SRCVAR": "RFENDT",
      "SRCSEQ": null,
      "SAFFL": "Y"
    },
    {
      "STUDYID": "CDISCPILOT01",
      "SITEID": "710",
      "USUBJID": "01-710-1154",
      "AGE": 84.0,
      "AGEGR1": ">80",
      "AGEGR1N": 3.0,
      "RACE": "WHITE",
      "RACEN": 1.0,
      "SEX": "M",
      "TRTSDT": 19811.0,
      "TRTEDT": 19840.0,
      "TRTDUR": 30.0,
      "TRTP": "Xanomeline Low Dose",
      "TRTA": "Xanomeline Low Dose",
      "TRTAN": 54.0,
      "PARAM": "Time to First Dermatologic Event",
      "PARAMCD": "TTDE",
      "AVAL": 21.0,
      "STARTDT": 19811.0,
      "ADT": 19831.0,
      "CNSR": 5.397605346934028e-79,
      "EVNTDESC": "Dematologic Event Occured",
      "SRCDOM": "ADAE",
      "SRCVAR": "ASTDT",
      "SRCSEQ": 1.0,
      "SAFFL": "Y"
    },
    {
      "STUDYID": "CDISCPILOT01",
      "SITEID": "710",
      "USUBJID": "01-710-1166",
      "AGE": 81.0,
      "AGEGR1": ">80",
      "AGEGR1N": 3.0,
      "RACE": "WHITE",
      "RACEN": 1.0,
      "SEX": "F",
      "TRTSDT": 19327.0,
      "TRTEDT": 19436.0,
      "TRTDUR": 110.0,
      "TRTP": "Xanomeline Low Dose",
      "TRTA": "Xanomeline Low Dose",
      "TRTAN": 54.0,
      "PARAM": "Time to First Dermatologic Event",
      "PARAMCD": "TTDE",
      "AVAL": 121.0,
      "STARTDT": 19327.0,
      "ADT": 19447.0,
      "CNSR": 1.0,
      "EVNTDESC": "Study Completion Date",
      "SRCDOM": "ADSL",
      "SRCVAR": "RFENDT",
      "SRCSEQ": null,
      "SAFFL": "Y"
    },
    {
      "STUDYID": "CDISCPILOT01",
      "SITEID": "710",
      "USUBJID": "01-710-1183",
      "AGE": 80.0,
      "AGEGR1": "65-80",
      "AGEGR1N": 2.0,
      "RACE": "WHITE",
      "RACEN": 1.0,
      "SEX": "F",
      "TRTSDT": 19678.0,
      "TRTEDT": 19860.0,
      "TRTDUR": 183.0,
      "TRTP": "Placebo",
      "TRTA": "Placebo",
      "TRTAN": 5.397605346934028e-79,
      "PARAM": "Time to First Dermatologic Event",
      "PARAMCD": "TTDE",
      "AVAL": 183.0,
      "STARTDT": 19678.0,
      "ADT": 19860.0,
      "CNSR": 1.0,
      "EVNTDESC": "Study Completion Date",
      "SRCDOM": "ADSL",
      "SRCVAR": "RFENDT",
      "SRCSEQ": null,
      "SAFFL": "Y"
    },
    {
      "STUDYID": "CDISCPILOT01",
      "SITEID": "710",
      "USUBJID": "01-710-1187",
      "AGE": 78.0,
      "AGEGR1": "65-80",
      "AGEGR1N": 2.0,
      "RACE": "WHITE",
      "RACEN": 1.0,
      "SEX": "F",
      "TRTSDT": 19307.0,
      "TRTEDT": 19490.0,
      "TRTDUR": 184.0,
      "TRTP": "Xanomeline High Dose",
      "TRTA": "Xanomeline High Dose",
      "TRTAN": 81.0,
      "PARAM": "Time to First Dermatologic Event",
      "PARAMCD": "TTDE",
      "AVAL": 44.0,
      "STARTDT": 19307.0,
      "ADT": 19350.0,
      "CNSR": 5.397605346934028e-79,
      "EVNTDESC": "Dematologic Event Occured",
      "SRCDOM": "ADAE",
      "SRCVAR": "ASTDT",
      "SRCSEQ": 1.0,
      "SAFFL": "Y"
    },
    {
      "STUDYID": "CDISCPILOT01",
      "SITEID": "710",
      "USUBJID": "01-710-1235",
      "AGE": 56.0,
      "AGEGR1": "<65",
      "AGEGR1N": 1.0,
      "RACE": "WHITE",
      "RACEN": 1.0,
      "SEX": "F",
      "TRTSDT": 19262.0,
      "TRTEDT": 19444.0,
      "TRTDUR": 183.0,
      "TRTP": "Xanomeline Low Dose",
      "TRTA": "Xanomeline Low Dose",
      "TRTAN": 54.0,
      "PARAM": "Time to First Dermatologic Event",
      "PARAMCD": "TTDE",
      "AVAL": 126.0,
      "STARTDT": 19262.0,
      "ADT": 19387.0,
      "CNSR": 5.397605346934028e-79,
      "EVNTDESC": "Dematologic Event Occured",
      "SRCDOM": "ADAE",
      "SRCVAR": "ASTDT",
      "SRCSEQ": 3.0,
      "SAFFL": "Y"
    },
    {
      "STUDYID": "CDISCPILOT01",
      "SITEID": "710",
      "USUBJID": "01-710-1249",
      "AGE": 79.0,
      "AGEGR1": "65-80",
      "AGEGR1N": 2.0,
      "RACE": "WHITE",
      "RACEN": 1.0,
      "SEX": "M",
      "TRTSDT": 19720.0,
      "TRTEDT": 19902.0,
      "TRTDUR": 183.0,
      "TRTP": "Xanomeline High Dose",
      "TRTA": "Xanomeline High Dose",
      "TRTAN": 81.0,
      "PARAM": "Time to First Dermatologic Event",
      "PARAMCD": "TTDE",
      "AVAL": 46.0,
      "STARTDT": 19720.0,
      "ADT": 19765.0,
      "CNSR": 5.397605346934028e-79,
      "EVNTDESC": "Dematologic Event Occured",
      "SRCDOM": "ADAE",
      "SRCVAR": "ASTDT",
      "SRCSEQ": 1.0,
      "SAFFL": "Y"
    },
    {
      "STUDYID": "CDISCPILOT01",
      "SITEID": "710",
      "USUBJID": "01-710-1264",
      "AGE": 78.0,
      "AGEGR1": "65-80",
      "AGEGR1N": 2.0,
      "RACE": "WHITE",
      "RACEN": 1.0,
      "SEX": "M",
      "TRTSDT": 19522.0,
      "TRTEDT": 19642.0,
      "TRTDUR": 121.0,
      "TRTP": "Placebo",
      "TRTA": "Placebo",
      "TRTAN": 5.397605346934028e-79,
      "PARAM": "Time to First Dermatologic Event",
      "PARAMCD": "TTDE",
      "AVAL": 70.0,
      "STARTDT": 19522.0,
      "ADT": 19591.0,
      "CNSR": 5.397605346934028e-79,
      "EVNTDESC": "Dematologic Event Occured",
      "SRCDOM": "ADAE",
      "SRCVAR": "ASTDT",
      "SRCSEQ": 2.0,
      "SAFFL": "Y"
    },
    {
      "STUDYID": "CDISCPILOT01",
      "SITEID": "710",
      "USUBJID": "01-710-1270",
      "AGE": 83.0,
      "AGEGR1": ">80",
      "AGEGR1N": 3.0,
      "RACE": "WHITE",
      "RACEN": 1.0,
      "SEX": "F",
      "TRTSDT": 19766.0,
      "TRTEDT": 19783.0,
      "TRTDUR": 18.0,
      "TRTP": "Xanomeline Low Dose",
      "TRTA": "Xanomeline Low Dose",
      "TRTAN": 54.0,
      "PARAM": "Time to First Dermatologic Event",
      "PARAMCD": "TTDE",
      "AVAL": 12.0,
      "STARTDT": 19766.0,
      "ADT": 19777.0,
      "CNSR": 5.397605346934028e-79,
      "EVNTDESC": "Dematologic Event Occured",
      "SRCDOM": "ADAE",
      "SRCVAR": "ASTDT",
      "SRCSEQ": 1.0,
      "SAFFL": "Y"
    },
    {
      "STUDYID": "CDISCPILOT01",
      "SITEID": "710",
      "USUBJID": "01-710-1271",
      "AGE": 86.0,
      "AGEGR1": ">80",
      "AGEGR1N": 3.0,
      "RACE": "WHITE",
      "RACEN": 1.0,
      "SEX": "F",
      "TRTSDT": 19263.0,
      "TRTEDT": 19318.0,
      "TRTDUR": 56.0,
      "TRTP": "Placebo",
      "TRTA": "Placebo",
      "TRTAN": 5.397605346934028e-79,
      "PARAM": "Time to First Dermatologic Event",
      "PARAMCD": "TTDE",
      "AVAL": 67.0,
      "STARTDT": 19263.0,
      "ADT": 19329.0,
      "CNSR": 1.0,
      "EVNTDESC": "Study Completion Date",
      "SRCDOM": "ADSL",
      "SRCVAR": "RFENDT",
      "SRCSEQ": null,
      "SAFFL": "Y"
    },
    {
      "STUDYID": "CDISCPILOT01",
      "SITEID": "710",
      "USUBJID": "01-710-1278",
      "AGE": 81.0,
      "AGEGR1": ">80",
      "AGEGR1N": 3.0,
      "RACE": "WHITE",
      "RACEN": 1.0,
      "SEX": "M",
      "TRTSDT": 19351.0,
      "TRTEDT": 19415.0,
      "TRTDUR": 65.0,
      "TRTP": "Xanomeline High Dose",
      "TRTA": "Xanomeline High Dose",
      "TRTAN": 81.0,
      "PARAM": "Time to First Dermatologic Event",
      "PARAMCD": "TTDE",
      "AVAL": 46.0,
      "STARTDT": 19351.0,
      "ADT": 19396.0,
      "CNSR": 5.397605346934028e-79,
      "EVNTDESC": "Dematologic Event Occured",
      "SRCDOM": "ADAE",
      "SRCVAR": "ASTDT",
      "SRCSEQ": 2.0,
      "SAFFL": "Y"
    },
    {
      "STUDYID": "CDISCPILOT01",
      "SITEID": "710",
      "USUBJID": "01-710-1300",
      "AGE": 78.0,
      "AGEGR1": "65-80",
      "AGEGR1N": 2.0,
      "RACE": "WHITE",
      "RACEN": 1.0,
      "SEX": "F",
      "TRTSDT": 19342.0,
      "TRTEDT": 19404.0,
      "TRTDUR": 63.0,
      "TRTP": "Xanomeline Low Dose",
      "TRTA": "Xanomeline Low Dose",
      "TRTAN": 54.0,
      "PARAM": "Time to First Dermatologic Event",
      "PARAMCD": "TTDE",
      "AVAL": 48.0,
      "STARTDT": 19342.0,
      "ADT": 19389.0,
      "CNSR": 5.397605346934028e-79,
      "EVNTDESC": "Dematologic Event Occured",
      "SRCDOM": "ADAE",
      "SRCVAR": "ASTDT",
      "SRCSEQ": 1.0,
      "SAFFL": "Y"
    },
    {
      "STUDYID": "CDISCPILOT01",
      "SITEID": "710",
      "USUBJID": "01-710-1314",
      "AGE": 78.0,
      "AGEGR1": "65-80",
      "AGEGR1N": 2.0,
      "RACE": "WHITE",
      "RACEN": 1.0,
      "SEX": "F",
      "TRTSDT": 19472.0,
      "TRTEDT": 19501.0,
      "TRTDUR": 30.0,
      "TRTP": "Placebo",
      "TRTA": "Placebo",
      "TRTAN": 5.397605346934028e-79,
      "PARAM": "Time to First Dermatologic Event",
      "PARAMCD": "TTDE",
      "AVAL": 32.0,
      "STARTDT": 19472.0,
      "ADT": 19503.0,
      "CNSR": 1.0,
      "EVNTDESC": "Study Completion Date",
      "SRCDOM": "ADSL",
      "SRCVAR": "RFENDT",
      "SRCSEQ": null,
      "SAFFL": "Y"
    },
    {
      "STUDYID": "CDISCPILOT01",
      "SITEID": "710",
      "USUBJID": "01-710-1315",
      "AGE": 83.0,
      "AGEGR1": ">80",
      "AGEGR1N": 3.0,
      "RACE": "WHITE",
      "RACEN": 1.0,
      "SEX": "F",
      "TRTSDT": 19416.0,
      "TRTEDT": 19545.0,
      "TRTDUR": 130.0,
      "TRTP": "Placebo",
      "TRTA": "Placebo",
      "TRTAN": 5.397605346934028e-79,
      "PARAM": "Time to First Dermatologic Event",
      "PARAMCD": "TTDE",
      "AVAL": 77.0,
      "STARTDT": 19416.0,
      "ADT": 19492.0,
      "CNSR": 5.397605346934028e-79,
      "EVNTDESC": "Dematologic Event Occured",
      "SRCDOM": "ADAE",
      "SRCVAR": "ASTDT",
      "SRCSEQ": 2.0,
      "SAFFL": "Y"
    },
    {
      "STUDYID": "CDISCPILOT01",
      "SITEID": "710",
      "USUBJID": "01-710-1354",
      "AGE": 73.0,
      "AGEGR1": "65-80",
      "AGEGR1N": 2.0,
      "RACE": "WHITE",
      "RACEN": 1.0,
      "SEX": "M",
      "TRTSDT": 19308.0,
      "TRTEDT": 19479.0,
      "TRTDUR": 172.0,
      "TRTP": "Xanomeline High Dose",
      "TRTA": "Xanomeline High Dose",
      "TRTAN": 81.0,
      "PARAM": "Time to First Dermatologic Event",
      "PARAMCD": "TTDE",
      "AVAL": 50.0,
      "STARTDT": 19308.0,
      "ADT": 19357.0,
      "CNSR": 5.397605346934028e-79,
      "EVNTDESC": "Dematologic Event Occured",
      "SRCDOM": "ADAE",
      "SRCVAR": "ASTDT",
      "SRCSEQ": 1.0,
      "SAFFL": "Y"
    },
    {
      "STUDYID": "CDISCPILOT01",
      "SITEID": "710",
      "USUBJID": "01-710-1358",
      "AGE": 82.0,
      "AGEGR1": ">80",
      "AGEGR1N": 3.0,
      "RACE": "WHITE",
      "RACEN": 1.0,
      "SEX": "M",
      "TRTSDT": 19253.0,
      "TRTEDT": 19398.0,
      "TRTDUR": 146.0,
      "TRTP": "Xanomeline Low Dose",
      "TRTA": "Xanomeline Low Dose",
      "TRTAN": 54.0,
      "PARAM": "Time to First Dermatologic Event",
      "PARAMCD": "TTDE",
      "AVAL": 97.0,
      "STARTDT": 19253.0,
      "ADT": 19349.0,
      "CNSR": 5.397605346934028e-79,
      "EVNTDESC": "Dematologic Event Occured",
      "SRCDOM": "ADAE",
      "SRCVAR": "ASTDT",
      "SRCSEQ": 1.0,
      "SAFFL": "Y"
    },
    {
      "STUDYID": "CDISCPILOT01",
      "SITEID": "710",
      "USUBJID": "01-710-1368",
      "AGE": 88.0,
      "AGEGR1": ">80",
      "AGEGR1N": 3.0,
      "RACE": "WHITE",
      "RACEN": 1.0,
      "SEX": "F",
      "TRTSDT": 19654.0,
      "TRTEDT": 19837.0,
      "TRTDUR": 184.0,
      "TRTP": "Placebo",
      "TRTA": "Placebo",
      "TRTAN": 5.397605346934028e-79,
      "PARAM": "Time to First Dermatologic Event",
      "PARAMCD": "TTDE",
      "AVAL": 184.0,
      "STARTDT": 19654.0,
      "ADT": 19837.0,
      "CNSR": 1.0,
      "EVNTDESC": "Study Completion Date",
      "SRCDOM": "ADSL",
      "SRCVAR": "RFENDT",
      "SRCSEQ": null,
      "SAFFL": "Y"
    },
    {
      "STUDYID": "CDISCPILOT01",
      "SITEID": "710",
      "USUBJID": "01-710-1385",
      "AGE": 77.0,
      "AGEGR1": "65-80",
      "AGEGR1N": 2.0,
      "RACE": "WHITE",
      "RACEN": 1.0,
      "SEX": "M",
      "TRTSDT": 19295.0,
      "TRTEDT": 19407.0,
      "TRTDUR": 113.0,
      "TRTP": "Xanomeline Low Dose",
      "TRTA": "Xanomeline Low Dose",
      "TRTAN": 54.0,
      "PARAM": "Time to First Dermatologic Event",
      "PARAMCD": "TTDE",
      "AVAL": 51.0,
      "STARTDT": 19295.0,
      "ADT": 19345.0,
      "CNSR": 5.397605346934028e-79,
      "EVNTDESC": "Dematologic Event Occured",
      "SRCDOM": "ADAE",
      "SRCVAR": "ASTDT",
      "SRCSEQ": 4.0,
      "SAFFL": "Y"
    },
    {
      "STUDYID": "CDISCPILOT01",
      "SITEID": "710",
      "USUBJID": "01-710-1408",
      "AGE": 80.0,
      "AGEGR1": "65-80",
      "AGEGR1N": 2.0,
      "RACE": "WHITE",
      "RACEN": 1.0,
      "SEX": "M",
      "TRTSDT": 19363.0,
      "TRTEDT": 19551.0,
      "TRTDUR": 189.0,
      "TRTP": "Xanomeline High Dose",
      "TRTA": "Xanomeline High Dose",
      "TRTAN": 81.0,
      "PARAM": "Time to First Dermatologic Event",
      "PARAMCD": "TTDE",
      "AVAL": 51.0,
      "STARTDT": 19363.0,
      "ADT": 19413.0,
      "CNSR": 5.397605346934028e-79,
      "EVNTDESC": "Dematologic Event Occured",
      "SRCDOM": "ADAE",
      "SRCVAR": "ASTDT",
      "SRCSEQ": 3.0,
      "SAFFL": "Y"
    },
    {
      "STUDYID": "CDISCPILOT01",
      "SITEID": "711",
      "USUBJID": "01-711-1012",
      "AGE": 67.0,
      "AGEGR1": "65-80",
      "AGEGR1N": 2.0,
      "RACE": "WHITE",
      "RACEN": 1.0,
      "SEX": "F",
      "TRTSDT": 19451.0,
      "TRTEDT": 19477.0,
      "TRTDUR": 27.0,
      "TRTP": "Xanomeline High Dose",
      "TRTA": "Xanomeline High Dose",
      "TRTAN": 81.0,
      "PARAM": "Time to First Dermatologic Event",
      "PARAMCD": "TTDE",
      "AVAL": 14.0,
      "STARTDT": 19451.0,
      "ADT": 19464.0,
      "CNSR": 5.397605346934028e-79,
      "EVNTDESC": "Dematologic Event Occured",
      "SRCDOM": "ADAE",
      "SRCVAR": "ASTDT",
      "SRCSEQ": 1.0,
      "SAFFL": "Y"
    },
    {
      "STUDYID": "CDISCPILOT01",
      "SITEID": "711",
      "USUBJID": "01-711-1036",
      "AGE": 70.0,
      "AGEGR1": "65-80",
      "AGEGR1N": 2.0,
      "RACE": "BLACK OR AFRICAN AMERICAN",
      "RACEN": 2.0,
      "SEX": "M",
      "TRTSDT": 19203.0,
      "TRTEDT": 19399.0,
      "TRTDUR": 197.0,
      "TRTP": "Placebo",
      "TRTA": "Placebo",
      "TRTAN": 5.397605346934028e-79,
      "PARAM": "Time to First Dermatologic Event",
      "PARAMCD": "TTDE",
      "AVAL": 197.0,
      "STARTDT": 19203.0,
      "ADT": 19399.0,
      "CNSR": 1.0,
      "EVNTDESC": "Study Completion Date",
      "SRCDOM": "ADSL",
      "SRCVAR": "RFENDT",
      "SRCSEQ": null,
      "SAFFL": "Y"
    },
    {
      "STUDYID": "CDISCPILOT01",
      "SITEID": "711",
      "USUBJID": "01-711-1143",
      "AGE": 76.0,
      "AGEGR1": "65-80",
      "AGEGR1N": 2.0,
      "RACE": "WHITE",
      "RACEN": 1.0,
      "SEX": "F",
      "TRTSDT": 19451.0,
      "TRTEDT": 19508.0,
      "TRTDUR": 58.0,
      "TRTP": "Xanomeline Low Dose",
      "TRTA": "Xanomeline Low Dose",
      "TRTAN": 54.0,
      "PARAM": "Time to First Dermatologic Event",
      "PARAMCD": "TTDE",
      "AVAL": 46.0,
      "STARTDT": 19451.0,
      "ADT": 19496.0,
      "CNSR": 5.397605346934028e-79,
      "EVNTDESC": "Dematologic Event Occured",
      "SRCDOM": "ADAE",
      "SRCVAR": "ASTDT",
      "SRCSEQ": 8.0,
      "SAFFL": "Y"
    },
    {
      "STUDYID": "CDISCPILOT01",
      "SITEID": "711",
      "USUBJID": "01-711-1433",
      "AGE": 84.0,
      "AGEGR1": ">80",
      "AGEGR1N": 3.0,
      "RACE": "WHITE",
      "RACEN": 1.0,
      "SEX": "F",
      "TRTSDT": 19385.0,
      "TRTEDT": 19394.0,
      "TRTDUR": 10.0,
      "TRTP": "Xanomeline High Dose",
      "TRTA": "Xanomeline High Dose",
      "TRTAN": 81.0,
      "PARAM": "Time to First Dermatologic Event",
      "PARAMCD": "TTDE",
      "AVAL": 11.0,
      "STARTDT": 19385.0,
      "ADT": 19395.0,
      "CNSR": 1.0,
      "EVNTDESC": "Study Completion Date",
      "SRCDOM": "ADSL",
      "SRCVAR": "RFENDT",
      "SRCSEQ": null,
      "SAFFL": "Y"
    },
    {
      "STUDYID": "CDISCPILOT01",
      "SITEID": "713",
      "USUBJID": "01-713-1043",
      "AGE": 78.0,
      "AGEGR1": "65-80",
      "AGEGR1N": 2.0,
      "RACE": "WHITE",
      "RACEN": 1.0,
      "SEX": "F",
      "TRTSDT": 19616.0,
      "TRTEDT": 19806.0,
      "TRTDUR": 191.0,
      "TRTP": "Xanomeline Low Dose",
      "TRTA": "Xanomeline Low Dose",
      "TRTAN": 54.0,
      "PARAM": "Time to First Dermatologic Event",
      "PARAMCD": "TTDE",
      "AVAL": 12.0,
      "STARTDT": 19616.0,
      "ADT": 19627.0,
      "CNSR": 5.397605346934028e-79,
      "EVNTDESC": "Dematologic Event Occured",
      "SRCDOM": "ADAE",
      "SRCVAR": "ASTDT",
      "SRCSEQ": 1.0,
      "SAFFL": "Y"
    },
    {
      "STUDYID": "CDISCPILOT01",
      "SITEID": "713",
      "USUBJID": "01-713-1073",
      "AGE": 74.0,
      "AGEGR1": "65-80",
      "AGEGR1N": 2.0,
      "RACE": "BLACK OR AFRICAN AMERICAN",
      "RACEN": 2.0,
      "SEX": "F",
      "TRTSDT": 19812.0,
      "TRTEDT": 20001.0,
      "TRTDUR": 190.0,
      "TRTP": "Xanomeline Low Dose",
      "TRTA": "Xanomeline Low Dose",
      "TRTAN": 54.0,
      "PARAM": "Time to First Dermatologic Event",
      "PARAMCD": "TTDE",
      "AVAL": 107.0,
      "STARTDT": 19812.0,
      "ADT": 19918.0,
      "CNSR": 5.397605346934028e-79,
      "EVNTDESC": "Dematologic Event Occured",
      "SRCDOM": "ADAE",
      "SRCVAR": "ASTDT",
      "SRCSEQ": 1.0,
      "SAFFL": "Y"
    },
    {
      "STUDYID": "CDISCPILOT01",
      "SITEID": "713",
      "USUBJID": "01-713-1106",
      "AGE": 74.0,
      "AGEGR1": "65-80",
      "AGEGR1N": 2.0,
      "RACE": "WHITE",
      "RACEN": 1.0,
      "SEX": "M",
      "TRTSDT": 19297.0,
      "TRTEDT": 19484.0,
      "TRTDUR": 188.0,
      "TRTP": "Xanomeline High Dose",
      "TRTA": "Xanomeline High Dose",
      "TRTAN": 81.0,
      "PARAM": "Time to First Dermatologic Event",
      "PARAMCD": "TTDE",
      "AVAL": 188.0,
      "STARTDT": 19297.0,
      "ADT": 19484.0,
      "CNSR": 1.0,
      "EVNTDESC": "Study Completion Date",
      "SRCDOM": "ADSL",
      "SRCVAR": "RFENDT",
      "SRCSEQ": null,
      "SAFFL": "Y"
    },
    {
      "STUDYID": "CDISCPILOT01",
      "SITEID": "713",
      "USUBJID": "01-713-1141",
      "AGE": 79.0,
      "AGEGR1": "65-80",
      "AGEGR1N": 2.0,
      "RACE": "WHITE",
      "RACEN": 1.0,
      "SEX": "M",
      "TRTSDT": 19509.0,
      "TRTEDT": 19540.0,
      "TRTDUR": 32.0,
      "TRTP": "Xanomeline High Dose",
      "TRTA": "Xanomeline High Dose",
      "TRTAN": 81.0,
      "PARAM": "Time to First Dermatologic Event",
      "PARAMCD": "TTDE",
      "AVAL": 22.0,
      "STARTDT": 19509.0,
      "ADT": 19530.0,
      "CNSR": 5.397605346934028e-79,
      "EVNTDESC": "Dematologic Event Occured",
      "SRCDOM": "ADAE",
      "SRCVAR": "ASTDT",
      "SRCSEQ": 1.0,
      "SAFFL": "Y"
    },
    {
      "STUDYID": "CDISCPILOT01",
      "SITEID": "713",
      "USUBJID": "01-713-1179",
      "AGE": 64.0,
      "AGEGR1": "<65",
      "AGEGR1N": 1.0,
      "RACE": "WHITE",
      "RACEN": 1.0,
      "SEX": "F",
      "TRTSDT": 19579.0,
      "TRTEDT": 19759.0,
      "TRTDUR": 181.0,
      "TRTP": "Placebo",
      "TRTA": "Placebo",
      "TRTAN": 5.397605346934028e-79,
      "PARAM": "Time to First Dermatologic Event",
      "PARAMCD": "TTDE",
      "AVAL": 181.0,
      "STARTDT": 19579.0,
      "ADT": 19759.0,
      "CNSR": 1.0,
      "EVNTDESC": "Study Completion Date",
      "SRCDOM": "ADSL",
      "SRCVAR": "RFENDT",
      "SRCSEQ": null,
      "SAFFL": "Y"
    },
    {
      "STUDYID": "CDISCPILOT01",
      "SITEID": "713",
      "USUBJID": "01-713-1209",
      "AGE": 77.0,
      "AGEGR1": "65-80",
      "AGEGR1N": 2.0,
      "RACE": "WHITE",
      "RACEN": 1.0,
      "SEX": "F",
      "TRTSDT": 19505.0,
      "TRTEDT": 19684.0,
      "TRTDUR": 180.0,
      "TRTP": "Xanomeline High Dose",
      "TRTA": "Xanomeline High Dose",
      "TRTAN": 81.0,
      "PARAM": "Time to First Dermatologic Event",
      "PARAMCD": "TTDE",
      "AVAL": 7.0,
      "STARTDT": 19505.0,
      "ADT": 19511.0,
      "CNSR": 5.397605346934028e-79,
      "EVNTDESC": "Dematologic Event Occured",
      "SRCDOM": "ADAE",
      "SRCVAR": "ASTDT",
      "SRCSEQ": 2.0,
      "SAFFL": "Y"
    },
    {
      "STUDYID": "CDISCPILOT01",
      "SITEID": "713",
      "USUBJID": "01-713-1256",
      "AGE": 71.0,
      "AGEGR1": "65-80",
      "AGEGR1N": 2.0,
      "RACE": "WHITE",
      "RACEN": 1.0,
      "SEX": "M",
      "TRTSDT": 19255.0,
      "TRTEDT": 19442.0,
      "TRTDUR": 188.0,
      "TRTP": "Placebo",
      "TRTA": "Placebo",
      "TRTAN": 5.397605346934028e-79,
      "PARAM": "Time to First Dermatologic Event",
      "PARAMCD": "TTDE",
      "AVAL": 42.0,
      "STARTDT": 19255.0,
      "ADT": 19296.0,
      "CNSR": 5.397605346934028e-79,
      "EVNTDESC": "Dematologic Event Occured",
      "SRCDOM": "ADAE",
      "SRCVAR": "ASTDT",
      "SRCSEQ": 1.0,
      "SAFFL": "Y"
    },
    {
      "STUDYID": "CDISCPILOT01",
      "SITEID": "713",
      "USUBJID": "01-713-1269",
      "AGE": 73.0,
      "AGEGR1": "65-80",
      "AGEGR1N": 2.0,
      "RACE": "WHITE",
      "RACEN": 1.0,
      "SEX": "M",
      "TRTSDT": 19750.0,
      "TRTEDT": 19932.0,
      "TRTDUR": 183.0,
      "TRTP": "Placebo",
      "TRTA": "Placebo",
      "TRTAN": 5.397605346934028e-79,
      "PARAM": "Time to First Dermatologic Event",
      "PARAMCD": "TTDE",
      "AVAL": 7.0,
      "STARTDT": 19750.0,
      "ADT": 19756.0,
      "CNSR": 5.397605346934028e-79,
      "EVNTDESC": "Dematologic Event Occured",
      "SRCDOM": "ADAE",
      "SRCVAR": "ASTDT",
      "SRCSEQ": 1.0,
      "SAFFL": "Y"
    },
    {
      "STUDYID": "CDISCPILOT01",
      "SITEID": "713",
      "USUBJID": "01-713-1448",
      "AGE": 71.0,
      "AGEGR1": "65-80",
      "AGEGR1N": 2.0,
      "RACE": "WHITE",
      "RACEN": 1.0,
      "SEX": "F",
      "TRTSDT": 19742.0,
      "TRTEDT": 19859.0,
      "TRTDUR": 118.0,
      "TRTP": "Xanomeline Low Dose",
      "TRTA": "Xanomeline Low Dose",
      "TRTAN": 54.0,
      "PARAM": "Time to First Dermatologic Event",
      "PARAMCD": "TTDE",
      "AVAL": 60.0,
      "STARTDT": 19742.0,
      "ADT": 19801.0,
      "CNSR": 5.397605346934028e-79,
      "EVNTDESC": "Dematologic Event Occured",
      "SRCDOM": "ADAE",
      "SRCVAR": "ASTDT",
      "SRCSEQ": 1.0,
      "SAFFL": "Y"
    },
    {
      "STUDYID": "CDISCPILOT01",
      "SITEID": "714",
      "USUBJID": "01-714-1035",
      "AGE": 88.0,
      "AGEGR1": ">80",
      "AGEGR1N": 3.0,
      "RACE": "WHITE",
      "RACEN": 1.0,
      "SEX": "F",
      "TRTSDT": 19830.0,
      "TRTEDT": 20012.0,
      "TRTDUR": 183.0,
      "TRTP": "Placebo",
      "TRTA": "Placebo",
      "TRTAN": 5.397605346934028e-79,
      "PARAM": "Time to First Dermatologic Event",
      "PARAMCD": "TTDE",
      "AVAL": 183.0,
      "STARTDT": 19830.0,
      "ADT": 20012.0,
      "CNSR": 1.0,
      "EVNTDESC": "Study Completion Date",
      "SRCDOM": "ADSL",
      "SRCVAR": "RFENDT",
      "SRCSEQ": null,
      "SAFFL": "Y"
    },
    {
      "STUDYID": "CDISCPILOT01",
      "SITEID": "714",
      "USUBJID": "01-714-1068",
      "AGE": 79.0,
      "AGEGR1": "65-80",
      "AGEGR1N": 2.0,
      "RACE": "WHITE",
      "RACEN": 1.0,
      "SEX": "F",
      "TRTSDT": 19578.0,
      "TRTEDT": 19639.0,
      "TRTDUR": 62.0,
      "TRTP": "Xanomeline Low Dose",
      "TRTA": "Xanomeline Low Dose",
      "TRTAN": 54.0,
      "PARAM": "Time to First Dermatologic Event",
      "PARAMCD": "TTDE",
      "AVAL": 5.0,
      "STARTDT": 19578.0,
      "ADT": 19582.0,
      "CNSR": 5.397605346934028e-79,
      "EVNTDESC": "Dematologic Event Occured",
      "SRCDOM": "ADAE",
      "SRCVAR": "ASTDT",
      "SRCSEQ": 1.0,
      "SAFFL": "Y"
    },
    {
      "STUDYID": "CDISCPILOT01",
      "SITEID": "714",
      "USUBJID": "01-714-1195",
      "AGE": 75.0,
      "AGEGR1": "65-80",
      "AGEGR1N": 2.0,
      "RACE": "WHITE",
      "RACEN": 1.0,
      "SEX": "M",
      "TRTSDT": 19474.0,
      "TRTEDT": 19654.0,
      "TRTDUR": 181.0,
      "TRTP": "Xanomeline Low Dose",
      "TRTA": "Xanomeline Low Dose",
      "TRTAN": 54.0,
      "PARAM": "Time to First Dermatologic Event",
      "PARAMCD": "TTDE",
      "AVAL": 18.0,
      "STARTDT": 19474.0,
      "ADT": 19491.0,
      "CNSR": 5.397605346934028e-79,
      "EVNTDESC": "Dematologic Event Occured",
      "SRCDOM": "ADAE",
      "SRCVAR": "ASTDT",
      "SRCSEQ": 3.0,
      "SAFFL": "Y"
    },
    {
      "STUDYID": "CDISCPILOT01",
      "SITEID": "714",
      "USUBJID": "01-714-1288",
      "AGE": 77.0,
      "AGEGR1": "65-80",
      "AGEGR1N": 2.0,
      "RACE": "BLACK OR AFRICAN AMERICAN",
      "RACEN": 2.0,
      "SEX": "M",
      "TRTSDT": 19696.0,
      "TRTEDT": 19891.0,
      "TRTDUR": 196.0,
      "TRTP": "Xanomeline High Dose",
      "TRTA": "Xanomeline High Dose",
      "TRTAN": 81.0,
      "PARAM": "Time to First Dermatologic Event",
      "PARAMCD": "TTDE",
      "AVAL": 39.0,
      "STARTDT": 19696.0,
      "ADT": 19734.0,
      "CNSR": 5.397605346934028e-79,
      "EVNTDESC": "Dematologic Event Occured",
      "SRCDOM": "ADAE",
      "SRCVAR": "ASTDT",
      "SRCSEQ": 3.0,
      "SAFFL": "Y"
    },
    {
      "STUDYID": "CDISCPILOT01",
      "SITEID": "714",
      "USUBJID": "01-714-1375",
      "AGE": 78.0,
      "AGEGR1": "65-80",
      "AGEGR1N": 2.0,
      "RACE": "WHITE",
      "RACEN": 1.0,
      "SEX": "F",
      "TRTSDT": 19415.0,
      "TRTEDT": 19608.0,
      "TRTDUR": 194.0,
      "TRTP": "Placebo",
      "TRTA": "Placebo",
      "TRTAN": 5.397605346934028e-79,
      "PARAM": "Time to First Dermatologic Event",
      "PARAMCD": "TTDE",
      "AVAL": 33.0,
      "STARTDT": 19415.0,
      "ADT": 19447.0,
      "CNSR": 5.397605346934028e-79,
      "EVNTDESC": "Dematologic Event Occured",
      "SRCDOM": "ADAE",
      "SRCVAR": "ASTDT",
      "SRCSEQ": 1.0,
      "SAFFL": "Y"
    },
    {
      "STUDYID": "CDISCPILOT01",
      "SITEID": "714",
      "USUBJID": "01-714-1425",
      "AGE": 81.0,
      "AGEGR1": ">80",
      "AGEGR1N": 3.0,
      "RACE": "WHITE",
      "RACEN": 1.0,
      "SEX": "M",
      "TRTSDT": 19585.0,
      "TRTEDT": 19589.0,
      "TRTDUR": 5.0,
      "TRTP": "Xanomeline High Dose",
      "TRTA": "Xanomeline High Dose",
      "TRTAN": 81.0,
      "PARAM": "Time to First Dermatologic Event",
      "PARAMCD": "TTDE",
      "AVAL": 8.0,
      "STARTDT": 19585.0,
      "ADT": 19592.0,
      "CNSR": 1.0,
      "EVNTDESC": "Study Completion Date",
      "SRCDOM": "ADSL",
      "SRCVAR": "RFENDT",
      "SRCSEQ": null,
      "SAFFL": "Y"
    },
    {
      "STUDYID": "CDISCPILOT01",
      "SITEID": "715",
      "USUBJID": "01-715-1085",
      "AGE": 77.0,
      "AGEGR1": "65-80",
      "AGEGR1N": 2.0,
      "RACE": "WHITE",
      "RACEN": 1.0,
      "SEX": "F",
      "TRTSDT": 19405.0,
      "TRTEDT": 19588.0,
      "TRTDUR": 184.0,
      "TRTP": "Xanomeline Low Dose",
      "TRTA": "Xanomeline Low Dose",
      "TRTAN": 54.0,
      "PARAM": "Time to First Dermatologic Event",
      "PARAMCD": "TTDE",
      "AVAL": 184.0,
      "STARTDT": 19405.0,
      "ADT": 19588.0,
      "CNSR": 1.0,
      "EVNTDESC": "Study Completion Date",
      "SRCDOM": "ADSL",
      "SRCVAR": "RFENDT",
      "SRCSEQ": null,
      "SAFFL": "Y"
    },
    {
      "STUDYID": "CDISCPILOT01",
      "SITEID": "715",
      "USUBJID": "01-715-1107",
      "AGE": 65.0,
      "AGEGR1": "65-80",
      "AGEGR1N": 2.0,
      "RACE": "WHITE",
      "RACEN": 1.0,
      "SEX": "M",
      "TRTSDT": 19415.0,
      "TRTEDT": 19485.0,
      "TRTDUR": 71.0,
      "TRTP": "Xanomeline Low Dose",
      "TRTA": "Xanomeline Low Dose",
      "TRTAN": 54.0,
      "PARAM": "Time to First Dermatologic Event",
      "PARAMCD": "TTDE",
      "AVAL": 71.0,
      "STARTDT": 19415.0,
      "ADT": 19485.0,
      "CNSR": 5.397605346934028e-79,
      "EVNTDESC": "Dematologic Event Occured",
      "SRCDOM": "ADAE",
      "SRCVAR": "ASTDT",
      "SRCSEQ": 1.0,
      "SAFFL": "Y"
    },
    {
      "STUDYID": "CDISCPILOT01",
      "SITEID": "715",
      "USUBJID": "01-715-1155",
      "AGE": 59.0,
      "AGEGR1": "<65",
      "AGEGR1N": 1.0,
      "RACE": "WHITE",
      "RACEN": 1.0,
      "SEX": "F",
      "TRTSDT": 19705.0,
      "TRTEDT": 19748.0,
      "TRTDUR": 44.0,
      "TRTP": "Placebo",
      "TRTA": "Placebo",
      "TRTAN": 5.397605346934028e-79,
      "PARAM": "Time to First Dermatologic Event",
      "PARAMCD": "TTDE",
      "AVAL": 135.0,
      "STARTDT": 19705.0,
      "ADT": 19839.0,
      "CNSR": 1.0,
      "EVNTDESC": "Study Completion Date",
      "SRCDOM": "ADSL",
      "SRCVAR": "RFENDT",
      "SRCSEQ": null,
      "SAFFL": "Y"
    },
    {
      "STUDYID": "CDISCPILOT01",
      "SITEID": "715",
      "USUBJID": "01-715-1207",
      "AGE": 78.0,
      "AGEGR1": "65-80",
      "AGEGR1N": 2.0,
      "RACE": "WHITE",
      "RACEN": 1.0,
      "SEX": "F",
      "TRTSDT": 19315.0,
      "TRTEDT": 19505.0,
      "TRTDUR": 191.0,
      "TRTP": "Placebo",
      "TRTA": "Placebo",
      "TRTAN": 5.397605346934028e-79,
      "PARAM": "Time to First Dermatologic Event",
      "PARAMCD": "TTDE",
      "AVAL": 196.0,
      "STARTDT": 19315.0,
      "ADT": 19510.0,
      "CNSR": 1.0,
      "EVNTDESC": "Study Completion Date",
      "SRCDOM": "ADSL",
      "SRCVAR": "RFENDT",
      "SRCSEQ": null,
      "SAFFL": "Y"
    },
    {
      "STUDYID": "CDISCPILOT01",
      "SITEID": "715",
      "USUBJID": "01-715-1319",
      "AGE": 65.0,
      "AGEGR1": "65-80",
      "AGEGR1N": 2.0,
      "RACE": "WHITE",
      "RACEN": 1.0,
      "SEX": "M",
      "TRTSDT": 19406.0,
      "TRTEDT": 19422.0,
      "TRTDUR": 17.0,
      "TRTP": "Xanomeline High Dose",
      "TRTA": "Xanomeline High Dose",
      "TRTAN": 81.0,
      "PARAM": "Time to First Dermatologic Event",
      "PARAMCD": "TTDE",
      "AVAL": 30.0,
      "STARTDT": 19406.0,
      "ADT": 19435.0,
      "CNSR": 1.0,
      "EVNTDESC": "Study Completion Date",
      "SRCDOM": "ADSL",
      "SRCVAR": "RFENDT",
      "SRCSEQ": null,
      "SAFFL": "Y"
    },
    {
      "STUDYID": "CDISCPILOT01",
      "SITEID": "715",
      "USUBJID": "01-715-1321",
      "AGE": 75.0,
      "AGEGR1": "65-80",
      "AGEGR1N": 2.0,
      "RACE": "WHITE",
      "RACEN": 1.0,
      "SEX": "F",
      "TRTSDT": 19765.0,
      "TRTEDT": 19834.0,
      "TRTDUR": 70.0,
      "TRTP": "Xanomeline High Dose",
      "TRTA": "Xanomeline High Dose",
      "TRTAN": 81.0,
      "PARAM": "Time to First Dermatologic Event",
      "PARAMCD": "TTDE",
      "AVAL": 70.0,
      "STARTDT": 19765.0,
      "ADT": 19834.0,
      "CNSR": 5.397605346934028e-79,
      "EVNTDESC": "Dematologic Event Occured",
      "SRCDOM": "ADAE",
      "SRCVAR": "ASTDT",
      "SRCSEQ": 3.0,
      "SAFFL": "Y"
    },
    {
      "STUDYID": "CDISCPILOT01",
      "SITEID": "715",
      "USUBJID": "01-715-1397",
      "AGE": 76.0,
      "AGEGR1": "65-80",
      "AGEGR1N": 2.0,
      "RACE": "WHITE",
      "RACEN": 1.0,
      "SEX": "F",
      "TRTSDT": 19451.0,
      "TRTEDT": 19633.0,
      "TRTDUR": 183.0,
      "TRTP": "Placebo",
      "TRTA": "Placebo",
      "TRTAN": 5.397605346934028e-79,
      "PARAM": "Time to First Dermatologic Event",
      "PARAMCD": "TTDE",
      "AVAL": 184.0,
      "STARTDT": 19451.0,
      "ADT": 19634.0,
      "CNSR": 1.0,
      "EVNTDESC": "Study Completion Date",
      "SRCDOM": "ADSL",
      "SRCVAR": "RFENDT",
      "SRCSEQ": null,
      "SAFFL": "Y"
    },
    {
      "STUDYID": "CDISCPILOT01",
      "SITEID": "715",
      "USUBJID": "01-715-1405",
      "AGE": 69.0,
      "AGEGR1": "65-80",
      "AGEGR1N": 2.0,
      "RACE": "WHITE",
      "RACEN": 1.0,
      "SEX": "M",
      "TRTSDT": 19545.0,
      "TRTEDT": 19546.0,
      "TRTDUR": 2.0,
      "TRTP": "Xanomeline Low Dose",
      "TRTA": "Xanomeline Low Dose",
      "TRTAN": 54.0,
      "PARAM": "Time to First Dermatologic Event",
      "PARAMCD": "TTDE",
      "AVAL": 8.0,
      "STARTDT": 19545.0,
      "ADT": 19552.0,
      "CNSR": 1.0,
      "EVNTDESC": "Study Completion Date",
      "SRCDOM": "ADSL",
      "SRCVAR": "RFENDT",
      "SRCSEQ": null,
      "SAFFL": "Y"
    },
    {
      "STUDYID": "CDISCPILOT01",
      "SITEID": "716",
      "USUBJID": "01-716-1024",
      "AGE": 87.0,
      "AGEGR1": ">80",
      "AGEGR1N": 3.0,
      "RACE": "WHITE",
      "RACEN": 1.0,
      "SEX": "F",
      "TRTSDT": 19183.0,
      "TRTEDT": 19378.0,
      "TRTDUR": 196.0,
      "TRTP": "Placebo",
      "TRTA": "Placebo",
      "TRTAN": 5.397605346934028e-79,
      "PARAM": "Time to First Dermatologic Event",
      "PARAMCD": "TTDE",
      "AVAL": 196.0,
      "STARTDT": 19183.0,
      "ADT": 19378.0,
      "CNSR": 1.0,
      "EVNTDESC": "Study Completion Date",
      "SRCDOM": "ADSL",
      "SRCVAR": "RFENDT",
      "SRCSEQ": null,
      "SAFFL": "Y"
    },
    {
      "STUDYID": "CDISCPILOT01",
      "SITEID": "716",
      "USUBJID": "01-716-1026",
      "AGE": 73.0,
      "AGEGR1": "65-80",
      "AGEGR1N": 2.0,
      "RACE": "WHITE",
      "RACEN": 1.0,
      "SEX": "F",
      "TRTSDT": 19815.0,
      "TRTEDT": 20012.0,
      "TRTDUR": 198.0,
      "TRTP": "Placebo",
      "TRTA": "Placebo",
      "TRTAN": 5.397605346934028e-79,
      "PARAM": "Time to First Dermatologic Event",
      "PARAMCD": "TTDE",
      "AVAL": 16.0,
      "STARTDT": 19815.0,
      "ADT": 19830.0,
      "CNSR": 5.397605346934028e-79,
      "EVNTDESC": "Dematologic Event Occured",
      "SRCDOM": "ADAE",
      "SRCVAR": "ASTDT",
      "SRCSEQ": 2.0,
      "SAFFL": "Y"
    },
    {
      "STUDYID": "CDISCPILOT01",
      "SITEID": "716",
      "USUBJID": "01-716-1030",
      "AGE": 83.0,
      "AGEGR1": ">80",
      "AGEGR1N": 3.0,
      "RACE": "WHITE",
      "RACEN": 1.0,
      "SEX": "F",
      "TRTSDT": 19720.0,
      "TRTEDT": 19725.0,
      "TRTDUR": 6.0,
      "TRTP": "Xanomeline High Dose",
      "TRTA": "Xanomeline High Dose",
      "TRTAN": 81.0,
      "PARAM": "Time to First Dermatologic Event",
      "PARAMCD": "TTDE",
      "AVAL": 14.0,
      "STARTDT": 19720.0,
      "ADT": 19733.0,
      "CNSR": 1.0,
      "EVNTDESC": "Study Completion Date",
      "SRCDOM": "ADSL",
      "SRCVAR": "RFENDT",
      "SRCSEQ": null,
      "SAFFL": "Y"
    },
    {
      "STUDYID": "CDISCPILOT01",
      "SITEID": "716",
      "USUBJID": "01-716-1044",
      "AGE": 74.0,
      "AGEGR1": "65-80",
      "AGEGR1N": 2.0,
      "RACE": "WHITE",
      "RACEN": 1.0,
      "SEX": "M",
      "TRTSDT": 19475.0,
      "TRTEDT": 19665.0,
      "TRTDUR": 191.0,
      "TRTP": "Placebo",
      "TRTA": "Placebo",
      "TRTAN": 5.397605346934028e-79,
      "PARAM": "Time to First Dermatologic Event",
      "PARAMCD": "TTDE",
      "AVAL": 191.0,
      "STARTDT": 19475.0,
      "ADT": 19665.0,
      "CNSR": 1.0,
      "EVNTDESC": "Study Completion Date",
      "SRCDOM": "ADSL",
      "SRCVAR": "RFENDT",
      "SRCSEQ": null,
      "SAFFL": "Y"
    },
    {
      "STUDYID": "CDISCPILOT01",
      "SITEID": "716",
      "USUBJID": "01-716-1063",
      "AGE": 80.0,
      "AGEGR1": "65-80",
      "AGEGR1N": 2.0,
      "RACE": "WHITE",
      "RACEN": 1.0,
      "SEX": "M",
      "TRTSDT": 19487.0,
      "TRTEDT": 19595.0,
      "TRTDUR": 109.0,
      "TRTP": "Xanomeline Low Dose",
      "TRTA": "Xanomeline Low Dose",
      "TRTAN": 54.0,
      "PARAM": "Time to First Dermatologic Event",
      "PARAMCD": "TTDE",
      "AVAL": 57.0,
      "STARTDT": 19487.0,
      "ADT": 19543.0,
      "CNSR": 5.397605346934028e-79,
      "EVNTDESC": "Dematologic Event Occured",
      "SRCDOM": "ADAE",
      "SRCVAR": "ASTDT",
      "SRCSEQ": 3.0,
      "SAFFL": "Y"
    },
    {
      "STUDYID": "CDISCPILOT01",
      "SITEID": "716",
      "USUBJID": "01-716-1071",
      "AGE": 78.0,
      "AGEGR1": "65-80",
      "AGEGR1N": 2.0,
      "RACE": "WHITE",
      "RACEN": 1.0,
      "SEX": "F",
      "TRTSDT": 19517.0,
      "TRTEDT": 19571.0,
      "TRTDUR": 55.0,
      "TRTP": "Xanomeline High Dose",
      "TRTA": "Xanomeline High Dose",
      "TRTAN": 81.0,
      "PARAM": "Time to First Dermatologic Event",
      "PARAMCD": "TTDE",
      "AVAL": 55.0,
      "STARTDT": 19517.0,
      "ADT": 19571.0,
      "CNSR": 1.0,
      "EVNTDESC": "Study Completion Date",
      "SRCDOM": "ADSL",
      "SRCVAR": "RFENDT",
      "SRCSEQ": null,
      "SAFFL": "Y"
    },
    {
      "STUDYID": "CDISCPILOT01",
      "SITEID": "716",
      "USUBJID": "01-716-1094",
      "AGE": 82.0,
      "AGEGR1": ">80",
      "AGEGR1N": 3.0,
      "RACE": "WHITE",
      "RACEN": 1.0,
      "SEX": "M",
      "TRTSDT": 19346.0,
      "TRTEDT": 19382.0,
      "TRTDUR": 37.0,
      "TRTP": "Xanomeline Low Dose",
      "TRTA": "Xanomeline Low Dose",
      "TRTAN": 54.0,
      "PARAM": "Time to First Dermatologic Event",
      "PARAMCD": "TTDE",
      "AVAL": 39.0,
      "STARTDT": 19346.0,
      "ADT": 19384.0,
      "CNSR": 1.0,
      "EVNTDESC": "Study Completion Date",
      "SRCDOM": "ADSL",
      "SRCVAR": "RFENDT",
      "SRCSEQ": null,
      "SAFFL": "Y"
    },
    {
      "STUDYID": "CDISCPILOT01",
      "SITEID": "716",
      "USUBJID": "01-716-1103",
      "AGE": 79.0,
      "AGEGR1": "65-80",
      "AGEGR1N": 2.0,
      "RACE": "WHITE",
      "RACEN": 1.0,
      "SEX": "M",
      "TRTSDT": 19802.0,
      "TRTEDT": 19986.0,
      "TRTDUR": 185.0,
      "TRTP": "Xanomeline Low Dose",
      "TRTA": "Xanomeline Low Dose",
      "TRTAN": 54.0,
      "PARAM": "Time to First Dermatologic Event",
      "PARAMCD": "TTDE",
      "AVAL": 112.0,
      "STARTDT": 19802.0,
      "ADT": 19913.0,
      "CNSR": 5.397605346934028e-79,
      "EVNTDESC": "Dematologic Event Occured",
      "SRCDOM": "ADAE",
      "SRCVAR": "ASTDT",
      "SRCSEQ": 1.0,
      "SAFFL": "Y"
    },
    {
      "STUDYID": "CDISCPILOT01",
      "SITEID": "716",
      "USUBJID": "01-716-1108",
      "AGE": 86.0,
      "AGEGR1": ">80",
      "AGEGR1N": 3.0,
      "RACE": "WHITE",
      "RACEN": 1.0,
      "SEX": "F",
      "TRTSDT": 19401.0,
      "TRTEDT": 19580.0,
      "TRTDUR": 180.0,
      "TRTP": "Placebo",
      "TRTA": "Placebo",
      "TRTAN": 5.397605346934028e-79,
      "PARAM": "Time to First Dermatologic Event",
      "PARAMCD": "TTDE",
      "AVAL": 79.0,
      "STARTDT": 19401.0,
      "ADT": 19479.0,
      "CNSR": 5.397605346934028e-79,
      "EVNTDESC": "Dematologic Event Occured",
      "SRCDOM": "ADAE",
      "SRCVAR": "ASTDT",
      "SRCSEQ": 2.0,
      "SAFFL": "Y"
    },
    {
      "STUDYID": "CDISCPILOT01",
      "SITEID": "716",
      "USUBJID": "01-716-1151",
      "AGE": 83.0,
      "AGEGR1": ">80",
      "AGEGR1N": 3.0,
      "RACE": "WHITE",
      "RACEN": 1.0,
      "SEX": "F",
      "TRTSDT": 19390.0,
      "TRTEDT": 19489.0,
      "TRTDUR": 100.0,
      "TRTP": "Xanomeline Low Dose",
      "TRTA": "Xanomeline Low Dose",
      "TRTAN": 54.0,
      "PARAM": "Time to First Dermatologic Event",
      "PARAMCD": "TTDE",
      "AVAL": 43.0,
      "STARTDT": 19390.0,
      "ADT": 19432.0,
      "CNSR": 5.397605346934028e-79,
      "EVNTDESC": "Dematologic Event Occured",
      "SRCDOM": "ADAE",
      "SRCVAR": "ASTDT",
      "SRCSEQ": 2.0,
      "SAFFL": "Y"
    },
    {
      "STUDYID": "CDISCPILOT01",
      "SITEID": "716",
      "USUBJID": "01-716-1157",
      "AGE": 85.0,
      "AGEGR1": ">80",
      "AGEGR1N": 3.0,
      "RACE": "WHITE",
      "RACEN": 1.0,
      "SEX": "M",
      "TRTSDT": 19633.0,
      "TRTEDT": 19817.0,
      "TRTDUR": 185.0,
      "TRTP": "Xanomeline Low Dose",
      "TRTA": "Xanomeline Low Dose",
      "TRTAN": 54.0,
      "PARAM": "Time to First Dermatologic Event",
      "PARAMCD": "TTDE",
      "AVAL": 24.0,
      "STARTDT": 19633.0,
      "ADT": 19656.0,
      "CNSR": 5.397605346934028e-79,
      "EVNTDESC": "Dematologic Event Occured",
      "SRCDOM": "ADAE",
      "SRCVAR": "ASTDT",
      "SRCSEQ": 2.0,
      "SAFFL": "Y"
    },
    {
      "STUDYID": "CDISCPILOT01",
      "SITEID": "716",
      "USUBJID": "01-716-1160",
      "AGE": 83.0,
      "AGEGR1": ">80",
      "AGEGR1N": 3.0,
      "RACE": "WHITE",
      "RACEN": 1.0,
      "SEX": "F",
      "TRTSDT": 19453.0,
      "TRTEDT": 19642.0,
      "TRTDUR": 190.0,
      "TRTP": "Placebo",
      "TRTA": "Placebo",
      "TRTAN": 5.397605346934028e-79,
      "PARAM": "Time to First Dermatologic Event",
      "PARAMCD": "TTDE",
      "AVAL": 35.0,
      "STARTDT": 19453.0,
      "ADT": 19487.0,
      "CNSR": 5.397605346934028e-79,
      "EVNTDESC": "Dematologic Event Occured",
      "SRCDOM": "ADAE",
      "SRCVAR": "ASTDT",
      "SRCSEQ": 1.0,
      "SAFFL": "Y"
    },
    {
      "STUDYID": "CDISCPILOT01",
      "SITEID": "716",
      "USUBJID": "01-716-1167",
      "AGE": 68.0,
      "AGEGR1": "65-80",
      "AGEGR1N": 2.0,
      "RACE": "WHITE",
      "RACEN": 1.0,
      "SEX": "M",
      "TRTSDT": 19274.0,
      "TRTEDT": 19460.0,
      "TRTDUR": 187.0,
      "TRTP": "Xanomeline Low Dose",
      "TRTA": "Xanomeline Low Dose",
      "TRTAN": 54.0,
      "PARAM": "Time to First Dermatologic Event",
      "PARAMCD": "TTDE",
      "AVAL": 41.0,
      "STARTDT": 19274.0,
      "ADT": 19314.0,
      "CNSR": 5.397605346934028e-79,
      "EVNTDESC": "Dematologic Event Occured",
      "SRCDOM": "ADAE",
      "SRCVAR": "ASTDT",
      "SRCSEQ": 1.0,
      "SAFFL": "Y"
    },
    {
      "STUDYID": "CDISCPILOT01",
      "SITEID": "716",
      "USUBJID": "01-716-1177",
      "AGE": 72.0,
      "AGEGR1": "65-80",
      "AGEGR1N": 2.0,
      "RACE": "WHITE",
      "RACEN": 1.0,
      "SEX": "M",
      "TRTSDT": 19968.0,
      "TRTEDT": 20152.0,
      "TRTDUR": 185.0,
      "TRTP": "Placebo",
      "TRTA": "Placebo",
      "TRTAN": 5.397605346934028e-79,
      "PARAM": "Time to First Dermatologic Event",
      "PARAMCD": "TTDE",
      "AVAL": 185.0,
      "STARTDT": 19968.0,
      "ADT": 20152.0,
      "CNSR": 1.0,
      "EVNTDESC": "Study Completion Date",
      "SRCDOM": "ADSL",
      "SRCVAR": "RFENDT",
      "SRCSEQ": null,
      "SAFFL": "Y"
    },
    {
      "STUDYID": "CDISCPILOT01",
      "SITEID": "716",
      "USUBJID": "01-716-1189",
      "AGE": 81.0,
      "AGEGR1": ">80",
      "AGEGR1N": 3.0,
      "RACE": "WHITE",
      "RACEN": 1.0,
      "SEX": "M",
      "TRTSDT": 19275.0,
      "TRTEDT": 19416.0,
      "TRTDUR": 142.0,
      "TRTP": "Xanomeline High Dose",
      "TRTA": "Xanomeline High Dose",
      "TRTAN": 81.0,
      "PARAM": "Time to First Dermatologic Event",
      "PARAMCD": "TTDE",
      "AVAL": 89.0,
      "STARTDT": 19275.0,
      "ADT": 19363.0,
      "CNSR": 5.397605346934028e-79,
      "EVNTDESC": "Dematologic Event Occured",
      "SRCDOM": "ADAE",
      "SRCVAR": "ASTDT",
      "SRCSEQ": 3.0,
      "SAFFL": "Y"
    },
    {
      "STUDYID": "CDISCPILOT01",
      "SITEID": "716",
      "USUBJID": "01-716-1229",
      "AGE": 73.0,
      "AGEGR1": "65-80",
      "AGEGR1N": 2.0,
      "RACE": "WHITE",
      "RACEN": 1.0,
      "SEX": "F",
      "TRTSDT": 19409.0,
      "TRTEDT": 19448.0,
      "TRTDUR": 40.0,
      "TRTP": "Xanomeline High Dose",
      "TRTA": "Xanomeline High Dose",
      "TRTAN": 81.0,
      "PARAM": "Time to First Dermatologic Event",
      "PARAMCD": "TTDE",
      "AVAL": 1.0,
      "STARTDT": 19409.0,
      "ADT": 19409.0,
      "CNSR": 5.397605346934028e-79,
      "EVNTDESC": "Dematologic Event Occured",
      "SRCDOM": "ADAE",
      "SRCVAR": "ASTDT",
      "SRCSEQ": 1.0,
      "SAFFL": "Y"
    },
    {
      "STUDYID": "CDISCPILOT01",
      "SITEID": "716",
      "USUBJID": "01-716-1298",
      "AGE": 76.0,
      "AGEGR1": "65-80",
      "AGEGR1N": 2.0,
      "RACE": "WHITE",
      "RACEN": 1.0,
      "SEX": "F",
      "TRTSDT": 19456.0,
      "TRTEDT": 19537.0,
      "TRTDUR": 82.0,
      "TRTP": "Xanomeline Low Dose",
      "TRTA": "Xanomeline Low Dose",
      "TRTAN": 54.0,
      "PARAM": "Time to First Dermatologic Event",
      "PARAMCD": "TTDE",
      "AVAL": 15.0,
      "STARTDT": 19456.0,
      "ADT": 19470.0,
      "CNSR": 5.397605346934028e-79,
      "EVNTDESC": "Dematologic Event Occured",
      "SRCDOM": "ADAE",
      "SRCVAR": "ASTDT",
      "SRCSEQ": 1.0,
      "SAFFL": "Y"
    },
    {
      "STUDYID": "CDISCPILOT01",
      "SITEID": "716",
      "USUBJID": "01-716-1308",
      "AGE": 76.0,
      "AGEGR1": "65-80",
      "AGEGR1N": 2.0,
      "RACE": "WHITE",
      "RACEN": 1.0,
      "SEX": "F",
      "TRTSDT": 19598.0,
      "TRTEDT": 19638.0,
      "TRTDUR": 41.0,
      "TRTP": "Placebo",
      "TRTA": "Placebo",
      "TRTAN": 5.397605346934028e-79,
      "PARAM": "Time to First Dermatologic Event",
      "PARAMCD": "TTDE",
      "AVAL": 24.0,
      "STARTDT": 19598.0,
      "ADT": 19621.0,
      "CNSR": 5.397605346934028e-79,
      "EVNTDESC": "Dematologic Event Occured",
      "SRCDOM": "ADAE",
      "SRCVAR": "ASTDT",
      "SRCSEQ": 1.0,
      "SAFFL": "Y"
    },
    {
      "STUDYID": "CDISCPILOT01",
      "SITEID": "716",
      "USUBJID": "01-716-1311",
      "AGE": 78.0,
      "AGEGR1": "65-80",
      "AGEGR1N": 2.0,
      "RACE": "WHITE",
      "RACEN": 1.0,
      "SEX": "M",
      "TRTSDT": 19857.0,
      "TRTEDT": 19987.0,
      "TRTDUR": 131.0,
      "TRTP": "Xanomeline Low Dose",
      "TRTA": "Xanomeline Low Dose",
      "TRTAN": 54.0,
      "PARAM": "Time to First Dermatologic Event",
      "PARAMCD": "TTDE",
      "AVAL": 15.0,
      "STARTDT": 19857.0,
      "ADT": 19871.0,
      "CNSR": 5.397605346934028e-79,
      "EVNTDESC": "Dematologic Event Occured",
      "SRCDOM": "ADAE",
      "SRCVAR": "ASTDT",
      "SRCSEQ": 1.0,
      "SAFFL": "Y"
    },
    {
      "STUDYID": "CDISCPILOT01",
      "SITEID": "716",
      "USUBJID": "01-716-1364",
      "AGE": 84.0,
      "AGEGR1": ">80",
      "AGEGR1N": 3.0,
      "RACE": "WHITE",
      "RACEN": 1.0,
      "SEX": "F",
      "TRTSDT": 19543.0,
      "TRTEDT": 19732.0,
      "TRTDUR": 190.0,
      "TRTP": "Xanomeline High Dose",
      "TRTA": "Xanomeline High Dose",
      "TRTAN": 81.0,
      "PARAM": "Time to First Dermatologic Event",
      "PARAMCD": "TTDE",
      "AVAL": 46.0,
      "STARTDT": 19543.0,
      "ADT": 19588.0,
      "CNSR": 5.397605346934028e-79,
      "EVNTDESC": "Dematologic Event Occured",
      "SRCDOM": "ADAE",
      "SRCVAR": "ASTDT",
      "SRCSEQ": 1.0,
      "SAFFL": "Y"
    },
    {
      "STUDYID": "CDISCPILOT01",
      "SITEID": "716",
      "USUBJID": "01-716-1373",
      "AGE": 74.0,
      "AGEGR1": "65-80",
      "AGEGR1N": 2.0,
      "RACE": "WHITE",
      "RACEN": 1.0,
      "SEX": "M",
      "TRTSDT": 19341.0,
      "TRTEDT": 19416.0,
      "TRTDUR": 76.0,
      "TRTP": "Xanomeline High Dose",
      "TRTA": "Xanomeline High Dose",
      "TRTAN": 81.0,
      "PARAM": "Time to First Dermatologic Event",
      "PARAMCD": "TTDE",
      "AVAL": 2.0,
      "STARTDT": 19341.0,
      "ADT": 19342.0,
      "CNSR": 5.397605346934028e-79,
      "EVNTDESC": "Dematologic Event Occured",
      "SRCDOM": "ADAE",
      "SRCVAR": "ASTDT",
      "SRCSEQ": 2.0,
      "SAFFL": "Y"
    },
    {
      "STUDYID": "CDISCPILOT01",
      "SITEID": "716",
      "USUBJID": "01-716-1418",
      "AGE": 80.0,
      "AGEGR1": "65-80",
      "AGEGR1N": 2.0,
      "RACE": "WHITE",
      "RACEN": 1.0,
      "SEX": "F",
      "TRTSDT": 19483.0,
      "TRTEDT": 19682.0,
      "TRTDUR": 200.0,
      "TRTP": "Xanomeline High Dose",
      "TRTA": "Xanomeline High Dose",
      "TRTAN": 81.0,
      "PARAM": "Time to First Dermatologic Event",
      "PARAMCD": "TTDE",
      "AVAL": 1.0,
      "STARTDT": 19483.0,
      "ADT": 19483.0,
      "CNSR": 5.397605346934028e-79,
      "EVNTDESC": "Dematologic Event Occured",
      "SRCDOM": "ADAE",
      "SRCVAR": "ASTDT",
      "SRCSEQ": 1.0,
      "SAFFL": "Y"
    },
    {
      "STUDYID": "CDISCPILOT01",
      "SITEID": "716",
      "USUBJID": "01-716-1441",
      "AGE": 85.0,
      "AGEGR1": ">80",
      "AGEGR1N": 3.0,
      "RACE": "WHITE",
      "RACEN": 1.0,
      "SEX": "M",
      "TRTSDT": 19745.0,
      "TRTEDT": 19926.0,
      "TRTDUR": 182.0,
      "TRTP": "Placebo",
      "TRTA": "Placebo",
      "TRTAN": 5.397605346934028e-79,
      "PARAM": "Time to First Dermatologic Event",
      "PARAMCD": "TTDE",
      "AVAL": 110.0,
      "STARTDT": 19745.0,
      "ADT": 19854.0,
      "CNSR": 5.397605346934028e-79,
      "EVNTDESC": "Dematologic Event Occured",
      "SRCDOM": "ADAE",
      "SRCVAR": "ASTDT",
      "SRCSEQ": 1.0,
      "SAFFL": "Y"
    },
    {
      "STUDYID": "CDISCPILOT01",
      "SITEID": "716",
      "USUBJID": "01-716-1447",
      "AGE": 72.0,
      "AGEGR1": "65-80",
      "AGEGR1N": 2.0,
      "RACE": "WHITE",
      "RACEN": 1.0,
      "SEX": "F",
      "TRTSDT": 19708.0,
      "TRTEDT": 19891.0,
      "TRTDUR": 184.0,
      "TRTP": "Xanomeline High Dose",
      "TRTA": "Xanomeline High Dose",
      "TRTAN": 81.0,
      "PARAM": "Time to First Dermatologic Event",
      "PARAMCD": "TTDE",
      "AVAL": 30.0,
      "STARTDT": 19708.0,
      "ADT": 19737.0,
      "CNSR": 5.397605346934028e-79,
      "EVNTDESC": "Dematologic Event Occured",
      "SRCDOM": "ADAE",
      "SRCVAR": "ASTDT",
      "SRCSEQ": 2.0,
      "SAFFL": "Y"
    },
    {
      "STUDYID": "CDISCPILOT01",
      "SITEID": "717",
      "USUBJID": "01-717-1004",
      "AGE": 80.0,
      "AGEGR1": "65-80",
      "AGEGR1N": 2.0,
      "RACE": "WHITE",
      "RACEN": 1.0,
      "SEX": "F",
      "TRTSDT": 19737.0,
      "TRTEDT": 19920.0,
      "TRTDUR": 184.0,
      "TRTP": "Xanomeline Low Dose",
      "TRTA": "Xanomeline Low Dose",
      "TRTAN": 54.0,
      "PARAM": "Time to First Dermatologic Event",
      "PARAMCD": "TTDE",
      "AVAL": 2.0,
      "STARTDT": 19737.0,
      "ADT": 19738.0,
      "CNSR": 5.397605346934028e-79,
      "EVNTDESC": "Dematologic Event Occured",
      "SRCDOM": "ADAE",
      "SRCVAR": "ASTDT",
      "SRCSEQ": 6.0,
      "SAFFL": "Y"
    },
    {
      "STUDYID": "CDISCPILOT01",
      "SITEID": "717",
      "USUBJID": "01-717-1109",
      "AGE": 84.0,
      "AGEGR1": ">80",
      "AGEGR1N": 3.0,
      "RACE": "WHITE",
      "RACEN": 1.0,
      "SEX": "M",
      "TRTSDT": 19750.0,
      "TRTEDT": 19932.0,
      "TRTDUR": 183.0,
      "TRTP": "Xanomeline High Dose",
      "TRTA": "Xanomeline High Dose",
      "TRTAN": 81.0,
      "PARAM": "Time to First Dermatologic Event",
      "PARAMCD": "TTDE",
      "AVAL": 20.0,
      "STARTDT": 19750.0,
      "ADT": 19769.0,
      "CNSR": 5.397605346934028e-79,
      "EVNTDESC": "Dematologic Event Occured",
      "SRCDOM": "ADAE",
      "SRCVAR": "ASTDT",
      "SRCSEQ": 2.0,
      "SAFFL": "Y"
    },
    {
      "STUDYID": "CDISCPILOT01",
      "SITEID": "717",
      "USUBJID": "01-717-1174",
      "AGE": 73.0,
      "AGEGR1": "65-80",
      "AGEGR1N": 2.0,
      "RACE": "WHITE",
      "RACEN": 1.0,
      "SEX": "M",
      "TRTSDT": 19380.0,
      "TRTEDT": 19563.0,
      "TRTDUR": 184.0,
      "TRTP": "Xanomeline High Dose",
      "TRTA": "Xanomeline High Dose",
      "TRTAN": 81.0,
      "PARAM": "Time to First Dermatologic Event",
      "PARAMCD": "TTDE",
      "AVAL": 5.0,
      "STARTDT": 19380.0,
      "ADT": 19384.0,
      "CNSR": 5.397605346934028e-79,
      "EVNTDESC": "Dematologic Event Occured",
      "SRCDOM": "ADAE",
      "SRCVAR": "ASTDT",
      "SRCSEQ": 1.0,
      "SAFFL": "Y"
    },
    {
      "STUDYID": "CDISCPILOT01",
      "SITEID": "717",
      "USUBJID": "01-717-1201",
      "AGE": 85.0,
      "AGEGR1": ">80",
      "AGEGR1N": 3.0,
      "RACE": "WHITE",
      "RACEN": 1.0,
      "SEX": "F",
      "TRTSDT": 19711.0,
      "TRTEDT": 19775.0,
      "TRTDUR": 65.0,
      "TRTP": "Placebo",
      "TRTA": "Placebo",
      "TRTAN": 5.397605346934028e-79,
      "PARAM": "Time to First Dermatologic Event",
      "PARAMCD": "TTDE",
      "AVAL": 1.0,
      "STARTDT": 19711.0,
      "ADT": 19711.0,
      "CNSR": 5.397605346934028e-79,
      "EVNTDESC": "Dematologic Event Occured",
      "SRCDOM": "ADAE",
      "SRCVAR": "ASTDT",
      "SRCSEQ": 1.0,
      "SAFFL": "Y"
    },
    {
      "STUDYID": "CDISCPILOT01",
      "SITEID": "717",
      "USUBJID": "01-717-1344",
      "AGE": 64.0,
      "AGEGR1": "<65",
      "AGEGR1N": 1.0,
      "RACE": "WHITE",
      "RACEN": 1.0,
      "SEX": "F",
      "TRTSDT": 19734.0,
      "TRTEDT": 19796.0,
      "TRTDUR": 63.0,
      "TRTP": "Placebo",
      "TRTA": "Placebo",
      "TRTAN": 5.397605346934028e-79,
      "PARAM": "Time to First Dermatologic Event",
      "PARAMCD": "TTDE",
      "AVAL": 63.0,
      "STARTDT": 19734.0,
      "ADT": 19796.0,
      "CNSR": 1.0,
      "EVNTDESC": "Study Completion Date",
      "SRCDOM": "ADSL",
      "SRCVAR": "RFENDT",
      "SRCSEQ": null,
      "SAFFL": "Y"
    },
    {
      "STUDYID": "CDISCPILOT01",
      "SITEID": "717",
      "USUBJID": "01-717-1357",
      "AGE": 77.0,
      "AGEGR1": "65-80",
      "AGEGR1N": 2.0,
      "RACE": "WHITE",
      "RACEN": 1.0,
      "SEX": "M",
      "TRTSDT": 19479.0,
      "TRTEDT": 19645.0,
      "TRTDUR": 167.0,
      "TRTP": "Xanomeline High Dose",
      "TRTA": "Xanomeline High Dose",
      "TRTAN": 81.0,
      "PARAM": "Time to First Dermatologic Event",
      "PARAMCD": "TTDE",
      "AVAL": 23.0,
      "STARTDT": 19479.0,
      "ADT": 19501.0,
      "CNSR": 5.397605346934028e-79,
      "EVNTDESC": "Dematologic Event Occured",
      "SRCDOM": "ADAE",
      "SRCVAR": "ASTDT",
      "SRCSEQ": 2.0,
      "SAFFL": "Y"
    },
    {
      "STUDYID": "CDISCPILOT01",
      "SITEID": "717",
      "USUBJID": "01-717-1446",
      "AGE": 75.0,
      "AGEGR1": "65-80",
      "AGEGR1N": 2.0,
      "RACE": "WHITE",
      "RACEN": 1.0,
      "SEX": "F",
      "TRTSDT": 19602.0,
      "TRTEDT": 19785.0,
      "TRTDUR": 184.0,
      "TRTP": "Xanomeline Low Dose",
      "TRTA": "Xanomeline Low Dose",
      "TRTAN": 54.0,
      "PARAM": "Time to First Dermatologic Event",
      "PARAMCD": "TTDE",
      "AVAL": 19.0,
      "STARTDT": 19602.0,
      "ADT": 19620.0,
      "CNSR": 5.397605346934028e-79,
      "EVNTDESC": "Dematologic Event Occured",
      "SRCDOM": "ADAE",
      "SRCVAR": "ASTDT",
      "SRCSEQ": 3.0,
      "SAFFL": "Y"
    },
    {
      "STUDYID": "CDISCPILOT01",
      "SITEID": "718",
      "USUBJID": "01-718-1066",
      "AGE": 79.0,
      "AGEGR1": "65-80",
      "AGEGR1N": 2.0,
      "RACE": "WHITE",
      "RACEN": 1.0,
      "SEX": "F",
      "TRTSDT": 19546.0,
      "TRTEDT": 19555.0,
      "TRTDUR": 10.0,
      "TRTP": "Xanomeline Low Dose",
      "TRTA": "Xanomeline Low Dose",
      "TRTAN": 54.0,
      "PARAM": "Time to First Dermatologic Event",
      "PARAMCD": "TTDE",
      "AVAL": 24.0,
      "STARTDT": 19546.0,
      "ADT": 19569.0,
      "CNSR": 1.0,
      "EVNTDESC": "Study Completion Date",
      "SRCDOM": "ADSL",
      "SRCVAR": "RFENDT",
      "SRCSEQ": null,
      "SAFFL": "Y"
    },
    {
      "STUDYID": "CDISCPILOT01",
      "SITEID": "718",
      "USUBJID": "01-718-1079",
      "AGE": 67.0,
      "AGEGR1": "65-80",
      "AGEGR1N": 2.0,
      "RACE": "WHITE",
      "RACEN": 1.0,
      "SEX": "F",
      "TRTSDT": 19255.0,
      "TRTEDT": 19297.0,
      "TRTDUR": 43.0,
      "TRTP": "Xanomeline Low Dose",
      "TRTA": "Xanomeline Low Dose",
      "TRTAN": 54.0,
      "PARAM": "Time to First Dermatologic Event",
      "PARAMCD": "TTDE",
      "AVAL": 17.0,
      "STARTDT": 19255.0,
      "ADT": 19271.0,
      "CNSR": 5.397605346934028e-79,
      "EVNTDESC": "Dematologic Event Occured",
      "SRCDOM": "ADAE",
      "SRCVAR": "ASTDT",
      "SRCSEQ": 2.0,
      "SAFFL": "Y"
    },
    {
      "STUDYID": "CDISCPILOT01",
      "SITEID": "718",
      "USUBJID": "01-718-1101",
      "AGE": 82.0,
      "AGEGR1": ">80",
      "AGEGR1N": 3.0,
      "RACE": "BLACK OR AFRICAN AMERICAN",
      "RACEN": 2.0,
      "SEX": "M",
      "TRTSDT": 19406.0,
      "TRTEDT": 19570.0,
      "TRTDUR": 165.0,
      "TRTP": "Xanomeline High Dose",
      "TRTA": "Xanomeline High Dose",
      "TRTAN": 81.0,
      "PARAM": "Time to First Dermatologic Event",
      "PARAMCD": "TTDE",
      "AVAL": 167.0,
      "STARTDT": 19406.0,
      "ADT": 19572.0,
      "CNSR": 1.0,
      "EVNTDESC": "Study Completion Date",
      "SRCDOM": "ADSL",
      "SRCVAR": "RFENDT",
      "SRCSEQ": null,
      "SAFFL": "Y"
    },
    {
      "STUDYID": "CDISCPILOT01",
      "SITEID": "718",
      "USUBJID": "01-718-1139",
      "AGE": 77.0,
      "AGEGR1": "65-80",
      "AGEGR1N": 2.0,
      "RACE": "WHITE",
      "RACEN": 1.0,
      "SEX": "M",
      "TRTSDT": 19497.0,
      "TRTEDT": 19679.0,
      "TRTDUR": 183.0,
      "TRTP": "Placebo",
      "TRTA": "Placebo",
      "TRTAN": 5.397605346934028e-79,
      "PARAM": "Time to First Dermatologic Event",
      "PARAMCD": "TTDE",
      "AVAL": 183.0,
      "STARTDT": 19497.0,
      "ADT": 19679.0,
      "CNSR": 1.0,
      "EVNTDESC": "Study Completion Date",
      "SRCDOM": "ADSL",
      "SRCVAR": "RFENDT",
      "SRCSEQ": null,
      "SAFFL": "Y"
    },
    {
      "STUDYID": "CDISCPILOT01",
      "SITEID": "718",
      "USUBJID": "01-718-1150",
      "AGE": 73.0,
      "AGEGR1": "65-80",
      "AGEGR1N": 2.0,
      "RACE": "WHITE",
      "RACEN": 1.0,
      "SEX": "F",
      "TRTSDT": 19377.0,
      "TRTEDT": 19568.0,
      "TRTDUR": 192.0,
      "TRTP": "Placebo",
      "TRTA": "Placebo",
      "TRTAN": 5.397605346934028e-79,
      "PARAM": "Time to First Dermatologic Event",
      "PARAMCD": "TTDE",
      "AVAL": 56.0,
      "STARTDT": 19377.0,
      "ADT": 19432.0,
      "CNSR": 5.397605346934028e-79,
      "EVNTDESC": "Dematologic Event Occured",
      "SRCDOM": "ADAE",
      "SRCVAR": "ASTDT",
      "SRCSEQ": 3.0,
      "SAFFL": "Y"
    },
    {
      "STUDYID": "CDISCPILOT01",
      "SITEID": "718",
      "USUBJID": "01-718-1170",
      "AGE": 80.0,
      "AGEGR1": "65-80",
      "AGEGR1N": 2.0,
      "RACE": "WHITE",
      "RACEN": 1.0,
      "SEX": "F",
      "TRTSDT": 19617.0,
      "TRTEDT": 19643.0,
      "TRTDUR": 27.0,
      "TRTP": "Xanomeline Low Dose",
      "TRTA": "Xanomeline Low Dose",
      "TRTAN": 54.0,
      "PARAM": "Time to First Dermatologic Event",
      "PARAMCD": "TTDE",
      "AVAL": 49.0,
      "STARTDT": 19617.0,
      "ADT": 19665.0,
      "CNSR": 1.0,
      "EVNTDESC": "Study Completion Date",
      "SRCDOM": "ADSL",
      "SRCVAR": "RFENDT",
      "SRCSEQ": null,
      "SAFFL": "Y"
    },
    {
      "STUDYID": "CDISCPILOT01",
      "SITEID": "718",
      "USUBJID": "01-718-1172",
      "AGE": 74.0,
      "AGEGR1": "65-80",
      "AGEGR1N": 2.0,
      "RACE": "WHITE",
      "RACEN": 1.0,
      "SEX": "M",
      "TRTSDT": 19622.0,
      "TRTEDT": 19691.0,
      "TRTDUR": 70.0,
      "TRTP": "Placebo",
      "TRTA": "Placebo",
      "TRTAN": 5.397605346934028e-79,
      "PARAM": "Time to First Dermatologic Event",
      "PARAMCD": "TTDE",
      "AVAL": 70.0,
      "STARTDT": 19622.0,
      "ADT": 19691.0,
      "CNSR": 1.0,
      "EVNTDESC": "Study Completion Date",
      "SRCDOM": "ADSL",
      "SRCVAR": "RFENDT",
      "SRCSEQ": null,
      "SAFFL": "Y"
    },
    {
      "STUDYID": "CDISCPILOT01",
      "SITEID": "718",
      "USUBJID": "01-718-1250",
      "AGE": 82.0,
      "AGEGR1": ">80",
      "AGEGR1N": 3.0,
      "RACE": "WHITE",
      "RACEN": 1.0,
      "SEX": "F",
      "TRTSDT": 19622.0,
      "TRTEDT": 19754.0,
      "TRTDUR": 133.0,
      "TRTP": "Xanomeline Low Dose",
      "TRTA": "Xanomeline Low Dose",
      "TRTAN": 54.0,
      "PARAM": "Time to First Dermatologic Event",
      "PARAMCD": "TTDE",
      "AVAL": 100.0,
      "STARTDT": 19622.0,
      "ADT": 19721.0,
      "CNSR": 5.397605346934028e-79,
      "EVNTDESC": "Dematologic Event Occured",
      "SRCDOM": "ADAE",
      "SRCVAR": "ASTDT",
      "SRCSEQ": 9.0,
      "SAFFL": "Y"
    },
    {
      "STUDYID": "CDISCPILOT01",
      "SITEID": "718",
      "USUBJID": "01-718-1254",
      "AGE": 78.0,
      "AGEGR1": "65-80",
      "AGEGR1N": 2.0,
      "RACE": "WHITE",
      "RACEN": 1.0,
      "SEX": "M",
      "TRTSDT": 19549.0,
      "TRTEDT": 19732.0,
      "TRTDUR": 184.0,
      "TRTP": "Xanomeline Low Dose",
      "TRTA": "Xanomeline Low Dose",
      "TRTAN": 54.0,
      "PARAM": "Time to First Dermatologic Event",
      "PARAMCD": "TTDE",
      "AVAL": 35.0,
      "STARTDT": 19549.0,
      "ADT": 19583.0,
      "CNSR": 5.397605346934028e-79,
      "EVNTDESC": "Dematologic Event Occured",
      "SRCDOM": "ADAE",
      "SRCVAR": "ASTDT",
      "SRCSEQ": 4.0,
      "SAFFL": "Y"
    },
    {
      "STUDYID": "CDISCPILOT01",
      "SITEID": "718",
      "USUBJID": "01-718-1328",
      "AGE": 86.0,
      "AGEGR1": ">80",
      "AGEGR1N": 3.0,
      "RACE": "WHITE",
      "RACEN": 1.0,
      "SEX": "M",
      "TRTSDT": 19390.0,
      "TRTEDT": 19466.0,
      "TRTDUR": 77.0,
      "TRTP": "Xanomeline High Dose",
      "TRTA": "Xanomeline High Dose",
      "TRTAN": 81.0,
      "PARAM": "Time to First Dermatologic Event",
      "PARAMCD": "TTDE",
      "AVAL": 51.0,
      "STARTDT": 19390.0,
      "ADT": 19440.0,
      "CNSR": 5.397605346934028e-79,
      "EVNTDESC": "Dematologic Event Occured",
      "SRCDOM": "ADAE",
      "SRCVAR": "ASTDT",
      "SRCSEQ": 1.0,
      "SAFFL": "Y"
    },
    {
      "STUDYID": "CDISCPILOT01",
      "SITEID": "718",
      "USUBJID": "01-718-1355",
      "AGE": 79.0,
      "AGEGR1": "65-80",
      "AGEGR1N": 2.0,
      "RACE": "WHITE",
      "RACEN": 1.0,
      "SEX": "M",
      "TRTSDT": 19417.0,
      "TRTEDT": 19599.0,
      "TRTDUR": 183.0,
      "TRTP": "Placebo",
      "TRTA": "Placebo",
      "TRTAN": 5.397605346934028e-79,
      "PARAM": "Time to First Dermatologic Event",
      "PARAMCD": "TTDE",
      "AVAL": 9.0,
      "STARTDT": 19417.0,
      "ADT": 19425.0,
      "CNSR": 5.397605346934028e-79,
      "EVNTDESC": "Dematologic Event Occured",
      "SRCDOM": "ADAE",
      "SRCVAR": "ASTDT",
      "SRCSEQ": 1.0,
      "SAFFL": "Y"
    },
    {
      "STUDYID": "CDISCPILOT01",
      "SITEID": "718",
      "USUBJID": "01-718-1371",
      "AGE": 69.0,
      "AGEGR1": "65-80",
      "AGEGR1N": 2.0,
      "RACE": "WHITE",
      "RACEN": 1.0,
      "SEX": "F",
      "TRTSDT": 19474.0,
      "TRTEDT": 19571.0,
      "TRTDUR": 98.0,
      "TRTP": "Xanomeline High Dose",
      "TRTA": "Xanomeline High Dose",
      "TRTAN": 81.0,
      "PARAM": "Time to First Dermatologic Event",
      "PARAMCD": "TTDE",
      "AVAL": 29.0,
      "STARTDT": 19474.0,
      "ADT": 19502.0,
      "CNSR": 5.397605346934028e-79,
      "EVNTDESC": "Dematologic Event Occured",
      "SRCDOM": "ADAE",
      "SRCVAR": "ASTDT",
      "SRCSEQ": 3.0,
      "SAFFL": "Y"
    },
    {
      "STUDYID": "CDISCPILOT01",
      "SITEID": "718",
      "USUBJID": "01-718-1427",
      "AGE": 74.0,
      "AGEGR1": "65-80",
      "AGEGR1N": 2.0,
      "RACE": "BLACK OR AFRICAN AMERICAN",
      "RACEN": 2.0,
      "SEX": "F",
      "TRTSDT": 19344.0,
      "TRTEDT": 19400.0,
      "TRTDUR": 57.0,
      "TRTP": "Xanomeline High Dose",
      "TRTA": "Xanomeline High Dose",
      "TRTAN": 81.0,
      "PARAM": "Time to First Dermatologic Event",
      "PARAMCD": "TTDE",
      "AVAL": 42.0,
      "STARTDT": 19344.0,
      "ADT": 19385.0,
      "CNSR": 5.397605346934028e-79,
      "EVNTDESC": "Dematologic Event Occured",
      "SRCDOM": "ADAE",
      "SRCVAR": "ASTDT",
      "SRCSEQ": 9.0,
      "SAFFL": "Y"
    }
  ],
  "is_sampled": false,
  "description": "AE Time To 1st Derm. Event Analysis",
  "domain": null
}