{
  "datasets": {
    "ADADAS": {
      "oid": "IG.ADADAS",
      "name": "ADADAS",
      "domain": null,
      "repeating": true,
      "sasName": "ADADAS",
      "description": "ADAS-Cog Analysis",
      "variables": [
        {
          "oid": "IT.ADADAS.USUBJID",
          "name": "USUBJID",
          "label": "Unique Subject Identifier",
          "dataType": "text",
          "sasFormat": null,
          "mandatory": false,
          "keySequence": 1,
          "methodOid": "MT.ADQSADAS.USUBJID",
          "codelist": null
        },
        {
          "oid": "IT.ADADAS.PARAMCD",
          "name": "PARAMCD",
          "label": "Parameter Code",
          "dataType": "text",
          "sasFormat": null,
          "mandatory": false,
          "keySequence": 2,
          "methodOid": "ADADAS.PARAMCD",
          "codelist": {
            "name": "PARAMCD_ADQSADAS",
            "items": [
              {
                "value": "ACITM01",
                "label": "Word Recall Task"
              },
              {
                "value": "ACITM02",
                "label": "Naming Objects And Fingers (Refer To 5 C"
              },
              {
                "value": "ACITM03",
                "label": "Delayed Word Recall"
              },
              {
                "value": "ACITM04",
                "label": "Commands"
              },
              {
                "value": "ACITM05",
                "label": "Constructional Praxis"
              },
              {
                "value": "ACITM06",
                "label": "Ideational Praxis"
              },
              {
                "value": "ACITM07",
                "label": "Orientation"
              },
              {
                "value": "ACITM08",
                "label": "Word Recognition"
              },
              {
                "value": "ACITM09",
                "label": "Attention/Visual Search Task"
              },
              {
                "value": "ACITM10",
                "label": "Maze Solution"
              },
              {
                "value": "ACITM11",
                "label": "Spoken Language Ability"
              },
              {
                "value": "ACITM12",
                "label": "Comprehension Of Spoken Language"
              },
              {
                "value": "ACITM13",
                "label": "Word Finding Difficulty In Spontaneous S"
              },
              {
                "value": "ACITM14",
                "label": "Recall Of Test Instructions"
              },
              {
                "value": "ACTOT",
                "label": "Adas-Cog(11) Subscore"
              }
            ]
          }
        },
        {
          "oid": "IT.ADADAS.AVISIT",
          "name": "AVISIT",
          "label": "Analysis Visit",
          "dataType": "text",
          "sasFormat": null,
          "mandatory": false,
          "keySequence": 3,
          "methodOid": "MT.ADQSADAS.AVISIT",
          "codelist": {
            "name": "AVISIT",
            "items": [
              {
                "value": "Baseline",
                "label": "Baseline"
              },
              {
                "value": "Week 2",
                "label": "Week 2"
              },
              {
                "value": "Week 4",
                "label": "Week 4"
              },
              {
                "value": "Week 6",
                "label": "Week 6"
              },
              {
                "value": "Week 8",
                "label": "Week 8"
              },
              {
                "value": "Week 10",
                "label": "Week 10"
              },
              {
                "value": "Week 12",
                "label": "Week 12"
              },
              {
                "value": "Week 14",
                "label": "Week 14"
              },
              {
                "value": "Week 16",
                "label": "Week 16"
              },
              {
                "value": "Week 18",
                "label": "Week 18"
              },
              {
                "value": "Week 20",
                "label": "Week 20"
              },
              {
                "value": "Week 22",
                "label": "Week 22"
              },
              {
                "value": "Week 24",
                "label": "Week 24"
              },
              {
                "value": "Week 26",
                "label": "Week 26"
              },
              {
                "value": "Weeks 4-24",
                "label": "Weeks 4-24"
              },
              {
                "value": "End of Treatment",
                "label": "End of Treatment"
              }
            ]
          }
        },
        {
          "oid": "IT.ADADAS.ADT",
          "name": "ADT",
          "label": "Analysis Date",
          "dataType": "integer",
          "sasFormat": null,
          "mandatory": false,
          "keySequence": 4,
          "methodOid": "MT.ADQSADAS.ADT",
          "codelist": null
        },
        {
          "oid": "IT.ADADAS.STUDYID",
          "name": "STUDYID",
          "label": "Study Identifier",
          "dataType": "text",
          "sasFormat": null,
          "mandatory": false,
          "keySequence": null,
          "methodOid": "MT.ADQSADAS.STUDYID",
          "codelist": null
        },
        {
          "oid": "IT.ADADAS.SITEID",
          "name": "SITEID",
          "label": "Study Site Identifier",
          "dataType": "text",
          "sasFormat": null,
          "mandatory": false,
          "keySequence": null,
          "methodOid": "MT.ADQSADAS.SITEID",
          "codelist": null
        },
        {
          "oid": "IT.ADADAS.SITEGR1",
          "name": "SITEGR1",
          "label": "Pooled Site Group 1",
          "dataType": "text",
          "sasFormat": null,
          "mandatory": false,
          "keySequence": null,
          "methodOid": "MT.ADQSADAS.SITEGR1",
          "codelist": null
        },
        {
          "oid": "IT.ADADAS.TRTSDT",
          "name": "TRTSDT",
          "label": "Date of First Exposure to Treatment",
          "dataType": "integer",
          "sasFormat": null,
          "mandatory": false,
          "keySequence": null,
          "methodOid": "MT.ADQSADAS.TRTSDT",
          "codelist": null
        },
        {
          "oid": "IT.ADADAS.TRTEDT",
          "name": "TRTEDT",
          "label": "Date of Last Exposure to Treatment",
          "dataType": "integer",
          "sasFormat": null,
          "mandatory": false,
          "keySequence": null,
          "methodOid": "MT.ADQSADAS.TRTEDT",
          "codelist": null
        },
        {
          "oid": "IT.ADADAS.TRTP",
          "name": "TRTP",
          "label": "Planned Treatment",
          "dataType": "text",
          "sasFormat": null,
          "mandatory": false,
          "keySequence": null,
          "methodOid": "MT.ADQSADAS.TRTP",
          "codelist": {
            "name": "ARM",
            "items": [
              {
                "value": "Placebo",
                "label": "Placebo"
              },
              {
                "value": "Xanomeline Low Dose",
                "label": "Xanomeline Low Dose"
              },
              {
                "value": "Xanomeline High Dose",
                "label": "Xanomeline High Dose"
              }
            ]
          }
        },
        {
          "oid": "IT.ADADAS.TRTPN",
          "name": "TRTPN",
          "label": "Planned Treatment (N)",
          "dataType": "integer",
          "sasFormat": null,
          "mandatory": false,
          "keySequence": null,
          "methodOid": "MT.ADQSADAS.TRTPN",
          "codelist": {
            "name": "ARMN",
            "items": [
              {
                "value": "0",
                "label": "Placebo"
              },
              {
                "value": "54",
                "label": "Xanomeline Low Dose"
              },
              {
                "value": "81",
                "label": "Xanomeline High Dose"
              }
            ]
          }
        },
        {
          "oid": "IT.ADADAS.AGE",
          "name": "AGE",
          "label": "Age",
          "dataType": "integer",
          "sasFormat": null,
          "mandatory": false,
          "keySequence": null,
          "methodOid": "MT.ADQSADAS.AGE",
          "codelist": null
        },
        {
          "oid": "IT.ADADAS.AGEGR1",
          "name": "AGEGR1",
          "label": "Pooled Age Group 1",
          "dataType": "text",
          "sasFormat": null,
          "mandatory": false,
          "keySequence": null,
          "methodOid": "MT.ADQSADAS.AGEGR1",
          "codelist": {
            "name": "AGEGR1",
            "items": [
              {
                "value": "<65",
                "label": "<65"
              },
              {
                "value": "65-80",
                "label": "65-80"
              },
              {
                "value": ">80",
                "label": ">80"
              }
            ]
          }
        },
        {
          "oid": "IT.ADADAS.AGEGR1N",
          "name": "AGEGR1N",
          "label": "Pooled Age Group 1 (N)",
          "dataType": "integer",
          "sasFormat": null,
          "mandatory": false,
          "keySequence": null,
          "methodOid": "MT.ADQSADAS.AGEGR1N",
          "codelist": {
            "name": "AGEGR1N",
            "items": [
              {
                "value": "1",
                "label": "<65"
              },
              {
                "value": "2",
                "label": "65-80"
              },
              {
                "value": "3",
                "label": ">80"
              }
            ]
          }
        },
        {
          "oid": "IT.ADADAS.RACE",
          "name": "RACE",
          "label": "Race",
          "dataType": "text",
          "sasFormat": null,
          "mandatory": false,
          "keySequence": null,
          "methodOid": "MT.ADQSADAS.RACE",
          "codelist": {
            "name": "RACE",
            "items": [
              {
                "value": "AMERICAN INDIAN OR ALASKA NATIVE",
                "label": "1"
              },
              {
                "value": "ASIAN",
                "label": "2"
              },
              {
                "value": "BLACK OR AFRICAN AMERICAN",
                "label": "3"
              },
              {
                "value": "NATIVE HAWAIIAN OR OTHER PACIFIC ISLANDER",
                "label": "5"
              },
              {
                "value": "WHITE",
                "label": "6"
              }
            ]
          }
        },
        {
          "oid": "IT.ADADAS.RACEN",
          "name": "RACEN",
          "label": "Race (N)",
          "dataType": "integer",
          "sasFormat": null,
          "mandatory": false,
          "keySequence": null,
          "methodOid": "MT.ADQSADAS.RACEN",
          "codelist": {
            "name": "RACEN",
            "items": [
              {
                "value": "1",
                "label": "AMERICAN INDIAN OR ALASKA NATIVE"
              },
              {
                "value": "2",
                "label": "ASIAN"
              },
              {
                "value": "3",
                "label": "BLACK OR AFRICAN AMERICAN"
              },
              {
                "value": "5",
                "label": "NATIVE HAWAIIAN OR OTHER PACIFIC ISLANDER"
              },
              {
                "value": "6",
                "label": "WHITE"
              }
            ]
          }
        },
        {
          "oid": "IT.ADADAS.SEX",
          "name": "SEX",
          "label": "Sex",
          "dataType": "text",
          "sasFormat": null,
          "mandatory": false,
          "keySequence": null,
          "methodOid": "MT.ADQSADAS.SEX",
          "codelist": {
            "name": "SEX",
            "items": [
              {
                "value": "M",
                "label": "M"
              },
              {
                "value": "F",
                "label": "F"
              }
            ]
          }
        },
        {
          "oid": "IT.ADADAS.ITTFL",
          "name": "ITTFL",
          "label": "Intent-to-Treat Population Flag",
          "dataType": "text",
          "sasFormat": null,
          "mandatory": false,
          "keySequence": null,
          "methodOid": "MT.ADQSADAS.ITTFL",
          "codelist": {
            "name": "YN",
            "items": [
              {
                "value": "Y",
                "label": "Y"
              },
              {
                "value": "N",
                "label": "N"
              }
            ]
          }
        },
        {
          "oid": "IT.ADADAS.EFFFL",
          "name": "EFFFL",
          "label": "Efficacy Population Flag",
          "dataType": "text",
          "sasFormat": null,
          "mandatory": false,
          "keySequence": null,
          "methodOid": "MT.ADQSADAS.EFFFL",
          "codelist": {
            "name": "YN",
            "items": [
              {
                "value": "Y",
                "label": "Y"
              },
              {
                "value": "N",
                "label": "N"
              }
            ]
          }
        },
        {
          "oid": "IT.ADADAS.COMP24FL",
          "name": "COMP24FL",
          "label": "Completers of Week 24 Population Flag",
          "dataType": "text",
          "sasFormat": null,
          "mandatory": false,
          "keySequence": null,
          "methodOid": "MT.ADQSADAS.COMP24FL",
          "codelist": {
            "name": "YN",
            "items": [
              {
                "value": "Y",
                "label": "Y"
              },
              {
                "value": "N",
                "label": "N"
              }
            ]
          }
        },
        {
          "oid": "IT.ADADAS.AVISITN",
          "name": "AVISITN",
          "label": "Analysis Visit (N)",
          "dataType": "integer",
          "sasFormat": null,
          "mandatory": false,
          "keySequence": null,
          "methodOid": "MT.ADQSADAS.AVISITN",
          "codelist": {
            "name": "AVISITN",
            "items": [
              {
                "value": "0",
                "label": "Baseline"
              },
              {
                "value": "2",
                "label": "Week 2"
              },
              {
                "value": "4",
                "label": "Week 4"
              },
              {
                "value": "6",
                "label": "Week 6"
              },
              {
                "value": "8",
                "label": "Week 8"
              },
              {
                "value": "10",
                "label": "Week 10"
              },
              {
                "value": "12",
                "label": "Week 12"
              },
              {
                "value": "14",
                "label": "Week 14"
              },
              {
                "value": "16",
                "label": "Week 16"
              },
              {
                "value": "18",
                "label": "Week 18"
              },
              {
                "value": "20",
                "label": "Week 20"
              },
              {
                "value": "22",
                "label": "Week 22"
              },
              {
                "value": "24",
                "label": "Week 24"
              },
              {
                "value": "26",
                "label": "Week 26"
              },
              {
                "value": "98",
                "label": "Weeks 4-24"
              },
              {
                "value": "99",
                "label": "End of Treatment"
              }
            ]
          }
        },
        {
          "oid": "IT.ADADAS.VISIT",
          "name": "VISIT",
          "label": "Visit Name",
          "dataType": "text",
          "sasFormat": null,
          "mandatory": false,
          "keySequence": null,
          "methodOid": "MT.ADQSADAS.VISIT",
          "codelist": {
            "name": "VISIT",
            "items": [
              {
                "value": "SCREENING 1",
                "label": "SCREENING 1"
              },
              {
                "value": "UNSCHEDULED 1.1",
                "label": "UNSCHEDULED 1.1"
              },
              {
                "value": "UNSCHEDULED 1.2",
                "label": "UNSCHEDULED 1.2"
              },
              {
                "value": "UNSCHEDULED 1.3",
                "label": "UNSCHEDULED 1.3"
              },
              {
                "value": "SCREENING 2",
                "label": "SCREENING 2"
              },
              {
                "value": "BASELINE",
                "label": "BASELINE"
              },
              {
                "value": "UNSCHEDULED 3.1",
                "label": "UNSCHEDULED 3.1"
              },
              {
                "value": "AMBUL ECG PLACEMENT",
                "label": "AMBUL ECG PLACEMENT"
              },
              {
                "value": "WEEK 2",
                "label": "WEEK 2"
              },
              {
                "value": "UNSCHEDULED 4.1",
                "label": "UNSCHEDULED 4.1"
              },
              {
                "value": "UNSCHEDULED 4.2",
                "label": "UNSCHEDULED 4.2"
              },
              {
                "value": "WEEK 4",
                "label": "WEEK 4"
              },
              {
                "value": "UNSCHEDULED 5.1",
                "label": "UNSCHEDULED 5.1"
              },
              {
                "value": "AMBUL ECG REMOVAL",
                "label": "AMBUL ECG REMOVAL"
              },
              {
                "value": "UNSCHEDULED 6.1",
                "label": "UNSCHEDULED 6.1"
              },
              {
                "value": "WEEK 6",
                "label": "WEEK 6"
              },
              {
                "value": "UNSCHEDULED 7.1",
                "label": "UNSCHEDULED 7.1"
              },
              {
                "value": "WEEK 8",
                "label": "WEEK 8"
              },
              {
                "value": "WEEK 10 (T)",
                "label": "WEEK 10 (T)"
              },
              {
                "value": "UNSCHEDULED 8.2",
                "label": "UNSCHEDULED 8.2"
              },
              {
                "value": "WEEK 12",
                "label": "WEEK 12"
              },
              {
                "value": "WEEK 14 (T)",
                "label": "WEEK 14 (T)"
              },
              {
                "value": "UNSCHEDULED 9.2",
                "label": "UNSCHEDULED 9.2"
              },
              {
                "value": "UNSCHEDULED 9.3",
                "label": "UNSCHEDULED 9.3"
              },
              {
                "value": "WEEK 16",
                "label": "WEEK 16"
              },
              {
                "value": "WEEK 18 (T)",
                "label": "WEEK 18 (T)"
              },
              {
                "value": "UNSCHEDULED 10.2",
                "label": "UNSCHEDULED 10.2"
              },
              {
                "value": "WEEK 20",
                "label": "WEEK 20"
              },
              {
                "value": "WEEK 22 (T)",
                "label": "WEEK 22 (T)"
              },
              {
                "value": "UNSCHEDULED 11.2",
                "label": "UNSCHEDULED 11.2"
              },
              {
                "value": "WEEK 24",
                "label": "WEEK 24"
              },
              {
                "value": "UNSCHEDULED 12.1",
                "label": "UNSCHEDULED 12.1"
              },
              {
                "value": "WEEK 26",
                "label": "WEEK 26"
              },
              {
                "value": "UNSCHEDULED 13.1",
                "label": "UNSCHEDULED 13.1"
              },
              {
                "value": "AE FOLLOW-UP",
                "label": "AE FOLLOW-UP"
              },
              {
                "value": "RETRIEVAL",
                "label": "RETRIEVAL"
              },
              {
                "value": "Rash followup",
                "label": "Rash followup"
              }
            ]
          }
        },
        {
          "oid": "IT.ADADAS.VISITNUM",
          "name": "VISITNUM",
          "label": "Visit Number",
          "dataType": "float",
          "sasFormat": null,
          "mandatory": false,
          "keySequence": null,
          "methodOid": "MT.ADQSADAS.VISITNUM",
          "codelist": {
            "name": "VISITNUM",
            "items": [
              {
                "value": "1",
                "label": "SCREENING 1"
              },
              {
                "value": "1.1",
                "label": "UNSCHEDULED 1.1"
              },
              {
                "value": "1.2",
                "label": "UNSCHEDULED 1.2"
              },
              {
                "value": "1.3",
                "label": "UNSCHEDULED 1.3"
              },
              {
                "value": "2",
                "label": "SCREENING 2"
              },
              {
                "value": "3",
                "label": "BASELINE"
              },
              {
                "value": "3.1",
                "label": "UNSCHEDULED 3.1"
              },
              {
                "value": "3.5",
                "label": "AMBUL ECG PLACEMENT"
              },
              {
                "value": "4",
                "label": "WEEK 2"
              },
              {
                "value": "4.1",
                "label": "UNSCHEDULED 4.1"
              },
              {
                "value": "4.2",
                "label": "UNSCHEDULED 4.2"
              },
              {
                "value": "5",
                "label": "WEEK 4"
              },
              {
                "value": "5.1",
                "label": "UNSCHEDULED 5.1"
              },
              {
                "value": "6",
                "label": "AMBUL ECG REMOVAL"
              },
              {
                "value": "6.1",
                "label": "UNSCHEDULED 6.1"
              },
              {
                "value": "7",
                "label": "WEEK 6"
              },
              {
                "value": "7.1",
                "label": "UNSCHEDULED 7.1"
              },
              {
                "value": "8",
                "label": "WEEK 8"
              },
              {
                "value": "8.1",
                "label": "WEEK 10 (T)"
              },
              {
                "value": "8.2",
                "label": "UNSCHEDULED 8.2"
              },
              {
                "value": "9",
                "label": "WEEK 12"
              },
              {
                "value": "9.1",
                "label": "WEEK 14 (T)"
              },
              {
                "value": "9.2",
                "label": "UNSCHEDULED 9.2"
              },
              {
                "value": "9.3",
                "label": "UNSCHEDULED 9.3"
              },
              {
                "value": "10",
                "label": "WEEK 16"
              },
              {
                "value": "10.1",
                "label": "WEEK 18 (T)"
              },
              {
                "value": "10.2",
                "label": "UNSCHEDULED 10.2"
              },
              {
                "value": "11",
                "label": "WEEK 20"
              },
              {
                "value": "11.1",
                "label": "WEEK 22 (T)"
              },
              {
                "value": "11.2",
                "label": "UNSCHEDULED 11.2"
              },
              {
                "value": "12",
                "label": "WEEK 24"
              },
              {
                "value": "12.1",
                "label": "UNSCHEDULED 12.1"
              },
              {
                "value": "13",
                "label": "WEEK 26"
              },
              {
                "value": "13.1",
                "label": "UNSCHEDULED 13.1"
              },
              {
                "value": "101",
                "label": "AE FOLLOW-UP"
              },
              {
                "value": "201",
                "label": "RETRIEVAL"
              },
              {
                "value": "501",
                "label": "Rash followup"
              }
            ]
          }
        },
        {
          "oid": "IT.ADADAS.ADY",
          "name": "ADY",
          "label": "Analysis Relative Day",
          "dataType": "integer",
          "sasFormat": null,
          "mandatory": false,
          "keySequence": null,
          "methodOid": "MT.ADQSADAS.ADY",
          "codelist": null
        },
        {
          "oid": "IT.ADADAS.PARAM",
          "name": "PARAM",
          "label": "Parameter",
          "dataType": "text",
          "sasFormat": null,
          "mandatory": false,
          "keySequence": null,
          "methodOid": "ADADAS.PARAM",
          "codelist": {
            "name": "PARAM_ADQSADAS",
            "items": [
              {
                "value": "Word Recall Task",
                "label": "Word Recall Task"
              },
              {
                "value": "Naming Objects And Fingers (Refer To 5 C",
                "label": "Naming Objects And Fingers (Refer To 5 C"
              },
              {
                "value": "Delayed Word Recall",
                "label": "Delayed Word Recall"
              },
              {
                "value": "Commands",
                "label": "Commands"
              },
              {
                "value": "Constructional Praxis",
                "label": "Constructional Praxis"
              },
              {
                "value": "Ideational Praxis",
                "label": "Ideational Praxis"
              },
              {
                "value": "Orientation",
                "label": "Orientation"
              },
              {
                "value": "Word Recognition",
                "label": "Word Recognition"
              },
              {
                "value": "Attention/Visual Search Task",
                "label": "Attention/Visual Search Task"
              },
              {
                "value": "Maze Solution",
                "label": "Maze Solution"
              },
              {
                "value": "Spoken Language Ability",
                "label": "Spoken Language Ability"
              },
              {
                "value": "Comprehension Of Spoken Language",
                "label": "Comprehension Of Spoken Language"
              },
              {
                "value": "Word Finding Difficulty In Spontaneous S",
                "label": "Word Finding Difficulty In Spontaneous S"
              },
              {
                "value": "Recall Of Test Instructions",
                "label": "Recall Of Test Instructions"
              },
              {
                "value": "Adas-Cog(11) Subscore",
                "label": "Adas-Cog(11) Subscore"
              }
            ]
          }
        },
        {
          "oid": "IT.ADADAS.PARAMN",
          "name": "PARAMN",
          "label": "Parameter (N)",
          "dataType": "integer",
          "sasFormat": null,
          "mandatory": false,
          "keySequence": null,
          "methodOid": "MT.ADQSADAS.PARAMN",
          "codelist": {
            "name": "PARAMN_ADQSADAS",
            "items": [
              {
                "value": "1",
                "label": "Word Recall Task"
              },
              {
                "value": "2",
                "label": "Naming Objects And Fingers (Refer To 5 C"
              },
              {
                "value": "3",
                "label": "Delayed Word Recall"
              },
              {
                "value": "4",
                "label": "Commands"
              },
              {
                "value": "5",
                "label": "Constructional Praxis"
              },
              {
                "value": "6",
                "label": "Ideational Praxis"
              },
              {
                "value": "7",
                "label": "Orientation"
              },
              {
                "value": "8",
                "label": "Word Recognition"
              },
              {
                "value": "9",
                "label": "Attention/Visual Search Task"
              },
              {
                "value": "10",
                "label": "Maze Solution"
              },
              {
                "value": "11",
                "label": "Spoken Language Ability"
              },
              {
                "value": "12",
                "label": "Comprehension Of Spoken Language"
              },
              {
                "value": "13",
                "label": "Word Finding Difficulty In Spontaneous S"
              },
              {
                "value": "14",
                "label": "Recall Of Test Instructions"
              },
              {
                "value": "15",
                "label": "Adas-Cog(11) Subscore"
              }
            ]
          }
        },
        {
          "oid": "IT.ADADAS.AVAL",
          "name": "AVAL",
          "label": "Analysis Value",
          "dataType": "integer",
          "sasFormat": null,
          "mandatory": false,
          "keySequence": null,
          "methodOid": "MT.ADADAS.AVAL",
          "codelist": null
        },
        {
          "oid": "IT.ADADAS.BASE",
          "name": "BASE",
          "label": "Baseline Value",
          "dataType": "integer",
          "sasFormat": null,
          "mandatory": false,
          "keySequence": null,
          "methodOid": "MT.ADQSADAS.BASE",
          "codelist": null
        },
        {
          "oid": "IT.ADADAS.CHG",
          "name": "CHG",
          "label": "Change from Baseline",
          "dataType": "integer",
          "sasFormat": null,
          "mandatory": false,
          "keySequence": null,
          "methodOid": "MT.ADQSADAS.CHG",
          "codelist": null
        },
        {
          "oid": "IT.ADADAS.PCHG",
          "name": "PCHG",
          "label": "Percent Change from Baseline",
          "dataType": "integer",
          "sasFormat": null,
          "mandatory": false,
          "keySequence": null,
          "methodOid": "MT.ADQSADAS.PCHG",
          "codelist": null
        },
        {
          "oid": "IT.ADADAS.ABLFL",
          "name": "ABLFL",
          "label": "Baseline Record Flag",
          "dataType": "text",
          "sasFormat": null,
          "mandatory": false,
          "keySequence": null,
          "methodOid": "MT.ADQSADAS.ABLFL",
          "codelist": {
            "name": "Y_BLANK",
            "items": [
              {
                "value": "Y",
                "label": "Yes"
              }
            ]
          }
        },
        {
          "oid": "IT.ADADAS.ANL01FL",
          "name": "ANL01FL",
          "label": "Analysis Record Flag 01",
          "dataType": "text",
          "sasFormat": null,
          "mandatory": false,
          "keySequence": null,
          "methodOid": "MT.ADQSADAS.ANL01FL",
          "codelist": {
            "name": "Y_BLANK",
            "items": [
              {
                "value": "Y",
                "label": "Yes"
              }
            ]
          }
        },
        {
          "oid": "IT.ADADAS.DTYPE",
          "name": "DTYPE",
          "label": "Derivation Type",
          "dataType": "text",
          "sasFormat": null,
          "mandatory": false,
          "keySequence": null,
          "methodOid": "MT.ADADAS.DTYPE",
          "codelist": {
            "name": "DTYPE",
            "items": [
              {
                "value": "LOCF",
                "label": "Last Observation Carried Forward"
              },
              {
                "value": "AVERAGE",
                "label": "Average"
              }
            ]
          }
        },
        {
          "oid": "IT.ADADAS.AWRANGE",
          "name": "AWRANGE",
          "label": "Analysis Window Valid Relative Range",
          "dataType": "text",
          "sasFormat": null,
          "mandatory": false,
          "keySequence": null,
          "methodOid": "MT.ADQSADAS.AWRANGE",
          "codelist": null
        },
        {
          "oid": "IT.ADADAS.AWTARGET",
          "name": "AWTARGET",
          "label": "Analysis Window Target",
          "dataType": "integer",
          "sasFormat": null,
          "mandatory": false,
          "keySequence": null,
          "methodOid": "MT.ADQSADAS.AWTARGET",
          "codelist": null
        },
        {
          "oid": "IT.ADADAS.AWTDIFF",
          "name": "AWTDIFF",
          "label": "Analysis Window Diff from Target",
          "dataType": "integer",
          "sasFormat": null,
          "mandatory": false,
          "keySequence": null,
          "methodOid": "MT.ADQSADAS.AWTDIFF",
          "codelist": null
        },
        {
          "oid": "IT.ADADAS.AWLO",
          "name": "AWLO",
          "label": "Analysis Window Beginning Timepoint",
          "dataType": "integer",
          "sasFormat": null,
          "mandatory": false,
          "keySequence": null,
          "methodOid": "MT.ADQSADAS.AWLO",
          "codelist": null
        },
        {
          "oid": "IT.ADADAS.AWHI",
          "name": "AWHI",
          "label": "Analysis Window Ending Timepoint",
          "dataType": "integer",
          "sasFormat": null,
          "mandatory": false,
          "keySequence": null,
          "methodOid": "MT.ADQSADAS.AWHI",
          "codelist": null
        },
        {
          "oid": "IT.ADADAS.AWU",
          "name": "AWU",
          "label": "Analysis Window Unit",
          "dataType": "text",
          "sasFormat": null,
          "mandatory": false,
          "keySequence": null,
          "methodOid": "MT.ADQSADAS.AWU",
          "codelist": {
            "name": "AWU",
            "items": [
              {
                "value": "DAYS",
                "label": "DAYS"
              }
            ]
          }
        },
        {
          "oid": "IT.ADADAS.QSSEQ",
          "name": "QSSEQ",
          "label": "Sequence Number",
          "dataType": "integer",
          "sasFormat": null,
          "mandatory": false,
          "keySequence": null,
          "methodOid": "ADADAS.QSSEQ",
          "codelist": null
        }
      ]
    },
    "ADAE": {
      "oid": "IG.ADAE",
      "name": "ADAE",
      "domain": null,
      "repeating": true,
      "sasName": "ADAE",
      "description": "Adverse Events Analysis Dataset",
      "variables": [
        {
          "oid": "IT.ADAE.USUBJID",
          "name": "USUBJID",
          "label": "Unique Subject Identifier",
          "dataType": "text",
          "sasFormat": null,
          "mandatory": false,
          "keySequence": 1,
          "methodOid": "MT.ADAE.USUBJID",
          "codelist": null
        },
        {
          "oid": "IT.ADAE.AETERM",
          "name": "AETERM",
          "label": "Reported Term for the Adverse Event",
          "dataType": "text",
          "sasFormat": null,
          "mandatory": false,
          "keySequence": 2,
          "methodOid": "MT.ADAE.AETERM",
          "codelist": null
        },
        {
          "oid": "IT.ADAE.ASTDT",
          "name": "ASTDT",
          "label": "Analysis Start Date",
          "dataType": "integer",
          "sasFormat": null,
          "mandatory": false,
          "keySequence": 3,
          "methodOid": "MT.ADAE.ASTDT",
          "codelist": null
        },
        {
          "oid": "IT.ADAE.AESEQ",
          "name": "AESEQ",
          "label": "Sequence Number",
          "dataType": "integer",
          "sasFormat": null,
          "mandatory": false,
          "keySequence": 4,
          "methodOid": "MT.ADAE.AESEQ",
          "codelist": null
        },
        {
          "oid": "IT.ADAE.STUDYID",
          "name": "STUDYID",
          "label": "Study Identifier",
          "dataType": "text",
          "sasFormat": null,
          "mandatory": false,
          "keySequence": null,
          "methodOid": "MT.ADAE.STUDYID",
          "codelist": null
        },
        {
          "oid": "IT.ADAE.SITEID",
          "name": "SITEID",
          "label": "Study Site Identifier",
          "dataType": "text",
          "sasFormat": null,
          "mandatory": false,
          "keySequence": null,
          "methodOid": "MT.ADAE.SITEID",
          "codelist": null
        },
        {
          "oid": "IT.ADAE.TRTA",
          "name": "TRTA",
          "label": "Actual Treatment",
          "dataType": "text",
          "sasFormat": null,
          "mandatory": false,
          "keySequence": null,
          "methodOid": "MT.ADAE.TRTA",
          "codelist": {
            "name": "ARM",
            "items": [
              {
                "value": "Placebo",
                "label": "Placebo"
              },
              {
                "value": "Xanomeline Low Dose",
                "label": "Xanomeline Low Dose"
              },
              {
                "value": "Xanomeline High Dose",
                "label": "Xanomeline High Dose"
              }
            ]
          }
        },
        {
          "oid": "IT.ADAE.TRTAN",
          "name": "TRTAN",
          "label": "Actual Treatment (N)",
          "dataType": "integer",
          "sasFormat": null,
          "mandatory": false,
          "keySequence": null,
          "methodOid": "MT.ADAE.TRTAN",
          "codelist": {
            "name": "ARMN",
            "items": [
              {
                "value": "0",
                "label": "Placebo"
              },
              {
                "value": "54",
                "label": "Xanomeline Low Dose"
              },
              {
                "value": "81",
                "label": "Xanomeline High Dose"
              }
            ]
          }
        },
        {
          "oid": "IT.ADAE.AGE",
          "name": "AGE",
          "label": "Age",
          "dataType": "integer",
          "sasFormat": null,
          "mandatory": false,
          "keySequence": null,
          "methodOid": "MT.ADAE.AGE",
          "codelist": null
        },
        {
          "oid": "IT.ADAE.AGEGR1",
          "name": "AGEGR1",
          "label": "Pooled Age Group 1",
          "dataType": "text",
          "sasFormat": null,
          "mandatory": false,
          "keySequence": null,
          "methodOid": "MT.ADAE.AGEGR1",
          "codelist": {
            "name": "AGEGR1",
            "items": [
              {
                "value": "<65",
                "label": "<65"
              },
              {
                "value": "65-80",
                "label": "65-80"
              },
              {
                "value": ">80",
                "label": ">80"
              }
            ]
          }
        },
        {
          "oid": "IT.ADAE.AGEGR1N",
          "name": "AGEGR1N",
          "label": "Pooled Age Group 1 (N)",
          "dataType": "integer",
          "sasFormat": null,
          "mandatory": false,
          "keySequence": null,
          "methodOid": "MT.ADAE.AGEGR1N",
          "codelist": {
            "name": "AGEGR1N",
            "items": [
              {
                "value": "1",
                "label": "<65"
              },
              {
                "value": "2",
                "label": "65-80"
              },
              {
                "value": "3",
                "label": ">80"
              }
            ]
          }
        },
        {
          "oid": "IT.ADAE.RACE",
          "name": "RACE",
          "label": "Race",
          "dataType": "text",
          "sasFormat": null,
          "mandatory": false,
          "keySequence": null,
          "methodOid": "MT.ADAE.RACE",
          "codelist": {
            "name": "RACE",
            "items": [
              {
                "value": "AMERICAN INDIAN OR ALASKA NATIVE",
                "label": "1"
              },
              {
                "value": "ASIAN",
                "label": "2"
              },
              {
                "value": "BLACK OR AFRICAN AMERICAN",
                "label": "3"
              },
              {
                "value": "NATIVE HAWAIIAN OR OTHER PACIFIC ISLANDER",
                "label": "5"
              },
              {
                "value": "WHITE",
                "label": "6"
              }
            ]
          }
        },
        {
          "oid": "IT.ADAE.RACEN",
          "name": "RACEN",
          "label": "Race (N)",
          "dataType": "integer",
          "sasFormat": null,
          "mandatory": false,
          "keySequence": null,
          "methodOid": "MT.ADAE.RACEN",
          "codelist": {
            "name": "RACEN",
            "items": [
              {
                "value": "1",
                "label": "AMERICAN INDIAN OR ALASKA NATIVE"
              },
              {
                "value": "2",
                "label": "ASIAN"
              },
              {
                "value": "3",
                "label": "BLACK OR AFRICAN AMERICAN"
              },
              {
                "value": "5",
                "label": "NATIVE HAWAIIAN OR OTHER PACIFIC ISLANDER"
              },
              {
                "value": "6",
                "label": "WHITE"
              }
            ]
          }
        },
        {
          "oid": "IT.ADAE.SEX",
          "name": "SEX",
          "label": "Sex",
          "dataType": "text",
          "sasFormat": null,
          "mandatory": false,
          "keySequence": null,
          "methodOid": "MT.ADAE.SEX",
          "codelist": {
            "name": "SEX",
            "items": [
              {
                "value": "M",
                "label": "M"
              },
              {
                "value": "F",
                "label": "F"
              }
            ]
          }
        },
        {
          "oid": "IT.ADAE.SAFFL",
          "name": "SAFFL",
          "label": "Safety Population Flag",
          "dataType": "text",
          "sasFormat": null,
          "mandatory": false,
          "keySequence": null,
          "methodOid": "MT.ADAE.SAFFL",
          "codelist": {
            "name": "YN",
            "items": [
              {
                "value": "Y",
                "label": "Y"
              },
              {
                "value": "N",
                "label": "N"
              }
            ]
          }
        },
        {
          "oid": "IT.ADAE.TRTSDT",
          "name": "TRTSDT",
          "label": "Date of First Exposure to Treatment",
          "dataType": "integer",
          "sasFormat": null,
          "mandatory": false,
          "keySequence": null,
          "methodOid": "MT.ADAE.TRTSDT",
          "codelist": null
        },
        {
          "oid": "IT.ADAE.TRTEDT",
          "name": "TRTEDT",
          "label": "Date of Last Exposure to Treatment",
          "dataType": "integer",
          "sasFormat": null,
          "mandatory": false,
          "keySequence": null,
          "methodOid": "MT.ADAE.TRTEDT",
          "codelist": null
        },
        {
          "oid": "IT.ADAE.ASTDTF",
          "name": "ASTDTF",
          "label": "Analysis Start Date Imputation Flag",
          "dataType": "text",
          "sasFormat": null,
          "mandatory": false,
          "keySequence": null,
          "methodOid": "MT.ADAE.ASTDTF",
          "codelist": null
        },
        {
          "oid": "IT.ADAE.ASTDY",
          "name": "ASTDY",
          "label": "Analysis Start Relative Day",
          "dataType": "integer",
          "sasFormat": null,
          "mandatory": false,
          "keySequence": null,
          "methodOid": "MT.ADAE.ASTDY",
          "codelist": null
        },
        {
          "oid": "IT.ADAE.AENDT",
          "name": "AENDT",
          "label": "Analysis End Date",
          "dataType": "integer",
          "sasFormat": null,
          "mandatory": false,
          "keySequence": null,
          "methodOid": "MT.ADAE.AENDT",
          "codelist": null
        },
        {
          "oid": "IT.ADAE.AENDY",
          "name": "AENDY",
          "label": "Analysis End Relative Day",
          "dataType": "integer",
          "sasFormat": null,
          "mandatory": false,
          "keySequence": null,
          "methodOid": "MT.ADAE.AENDY",
          "codelist": null
        },
        {
          "oid": "IT.ADAE.ADURN",
          "name": "ADURN",
          "label": "AE Duration (N)",
          "dataType": "integer",
          "sasFormat": null,
          "mandatory": false,
          "keySequence": null,
          "methodOid": "MT.ADAE.ADURN",
          "codelist": null
        },
        {
          "oid": "IT.ADAE.ADURU",
          "name": "ADURU",
          "label": "AE Duration Units",
          "dataType": "text",
          "sasFormat": null,
          "mandatory": false,
          "keySequence": null,
          "methodOid": "MT.ADAE.ADURU",
          "codelist": null
        },
        {
          "oid": "IT.ADAE.AELLT",
          "name": "AELLT",
          "label": "Lowest Level Term",
          "dataType": "text",
          "sasFormat": null,
          "mandatory": false,
          "keySequence": null,
          "methodOid": "MT.ADAE.AELLT",
          "codelist": {
            "name": "ADVERSE EVENT DICTIONARY",
            "items": []
          }
        },
        {
          "oid": "IT.ADAE.AELLTCD",
          "name": "AELLTCD",
          "label": "Lowest Level Term Code",
          "dataType": "integer",
          "sasFormat": null,
          "mandatory": false,
          "keySequence": null,
          "methodOid": "MT.ADAE.AELLTCD",
          "codelist": null
        },
        {
          "oid": "IT.ADAE.AEDECOD",
          "name": "AEDECOD",
          "label": "Dictionary-Derived Term",
          "dataType": "text",
          "sasFormat": null,
          "mandatory": false,
          "keySequence": null,
          "methodOid": "MT.ADAE.AEDECOD",
          "codelist": {
            "name": "ADVERSE EVENT DICTIONARY",
            "items": []
          }
        },
        {
          "oid": "IT.ADAE.AEPTCD",
          "name": "AEPTCD",
          "label": "Preferred Term Code",
          "dataType": "integer",
          "sasFormat": null,
          "mandatory": false,
          "keySequence": null,
          "methodOid": "MT.ADAE.AEPTCD",
          "codelist": null
        },
        {
          "oid": "IT.ADAE.AEHLT",
          "name": "AEHLT",
          "label": "High Level Term",
          "dataType": "text",
          "sasFormat": null,
          "mandatory": false,
          "keySequence": null,
          "methodOid": "MT.ADAE.AEHLT",
          "codelist": {
            "name": "ADVERSE EVENT DICTIONARY",
            "items": []
          }
        },
        {
          "oid": "IT.ADAE.AEHLTCD",
          "name": "AEHLTCD",
          "label": "High Level Term Code",
          "dataType": "integer",
          "sasFormat": null,
          "mandatory": false,
          "keySequence": null,
          "methodOid": "MT.ADAE.AEHLTCD",
          "codelist": null
        },
        {
          "oid": "IT.ADAE.AEHLGT",
          "name": "AEHLGT",
          "label": "High Level Group Term",
          "dataType": "text",
          "sasFormat": null,
          "mandatory": false,
          "keySequence": null,
          "methodOid": "MT.ADAE.AEHLGT",
          "codelist": {
            "name": "ADVERSE EVENT DICTIONARY",
            "items": []
          }
        },
        {
          "oid": "IT.ADAE.AEHLGTCD",
          "name": "AEHLGTCD",
          "label": "High Level Group Term Code",
          "dataType": "integer",
          "sasFormat": null,
          "mandatory": false,
          "keySequence": null,
          "methodOid": "MT.ADAE.AEHLGTCD",
          "codelist": null
        },
        {
          "oid": "IT.ADAE.AEBODSYS",
          "name": "AEBODSYS",
          "label": "Body System or Organ Class",
          "dataType": "text",
          "sasFormat": null,
          "mandatory": false,
          "keySequence": null,
          "methodOid": "MT.ADAE.AEBODSYS",
          "codelist": {
            "name": "ADVERSE EVENT DICTIONARY",
            "items": []
          }
        },
        {
          "oid": "IT.ADAE.AESOC",
          "name": "AESOC",
          "label": "Primary System Organ Class",
          "dataType": "text",
          "sasFormat": null,
          "mandatory": false,
          "keySequence": null,
          "methodOid": "MT.ADAE.AESOC",
          "codelist": {
            "name": "ADVERSE EVENT DICTIONARY",
            "items": []
          }
        },
        {
          "oid": "IT.ADAE.AESOCCD",
          "name": "AESOCCD",
          "label": "Primary System Organ Class Code",
          "dataType": "integer",
          "sasFormat": null,
          "mandatory": false,
          "keySequence": null,
          "methodOid": "MT.ADAE.AESOCCD",
          "codelist": null
        },
        {
          "oid": "IT.ADAE.AESEV",
          "name": "AESEV",
          "label": "Severity/Intensity",
          "dataType": "text",
          "sasFormat": null,
          "mandatory": false,
          "keySequence": null,
          "methodOid": "MT.ADAE.AESEV",
          "codelist": null
        },
        {
          "oid": "IT.ADAE.AESER",
          "name": "AESER",
          "label": "Serious Event",
          "dataType": "text",
          "sasFormat": null,
          "mandatory": false,
          "keySequence": null,
          "methodOid": "MT.ADAE.AESER",
          "codelist": {
            "name": "YN",
            "items": [
              {
                "value": "Y",
                "label": "Y"
              },
              {
                "value": "N",
                "label": "N"
              }
            ]
          }
        },
        {
          "oid": "IT.ADAE.AESCAN",
          "name": "AESCAN",
          "label": "Involves Cancer",
          "dataType": "text",
          "sasFormat": null,
          "mandatory": false,
          "keySequence": null,
          "methodOid": "MT.ADAE.AESCAN",
          "codelist": {
            "name": "YN",
            "items": [
              {
                "value": "Y",
                "label": "Y"
              },
              {
                "value": "N",
                "label": "N"
              }
            ]
          }
        },
        {
          "oid": "IT.ADAE.AESCONG",
          "name": "AESCONG",
          "label": "Congenital Anomaly or Birth Defect",
          "dataType": "text",
          "sasFormat": null,
          "mandatory": false,
          "keySequence": null,
          "methodOid": "MT.ADAE.AESCONG",
          "codelist": {
            "name": "YN",
            "items": [
              {
                "value": "Y",
                "label": "Y"
              },
              {
                "value": "N",
                "label": "N"
              }
            ]
          }
        },
        {
          "oid": "IT.ADAE.AESDISAB",
          "name": "AESDISAB",
          "label": "Persist or Signif Disability/Incapacity",
          "dataType": "text",
          "sasFormat": null,
          "mandatory": false,
          "keySequence": null,
          "methodOid": "MT.ADAE.AESDISAB",
          "codelist": {
            "name": "YN",
            "items": [
              {
                "value": "Y",
                "label": "Y"
              },
              {
                "value": "N",
                "label": "N"
              }
            ]
          }
        },
        {
          "oid": "IT.ADAE.AESDTH",
          "name": "AESDTH",
          "label": "Results in Death",
          "dataType": "text",
          "sasFormat": null,
          "mandatory": false,
          "keySequence": null,
          "methodOid": "MT.ADAE.AESDTH",
          "codelist": {
            "name": "YN",
            "items": [
              {
                "value": "Y",
                "label": "Y"
              },
              {
                "value": "N",
                "label": "N"
              }
            ]
          }
        },
        {
          "oid": "IT.ADAE.AESHOSP",
          "name": "AESHOSP",
          "label": "Requires or Prolongs Hospitalization",
          "dataType": "text",
          "sasFormat": null,
          "mandatory": false,
          "keySequence": null,
          "methodOid": "MT.ADAE.AESHOSP",
          "codelist": {
            "name": "YN",
            "items": [
              {
                "value": "Y",
                "label": "Y"
              },
              {
                "value": "N",
                "label": "N"
              }
            ]
          }
        },
        {
          "oid": "IT.ADAE.AESLIFE",
          "name": "AESLIFE",
          "label": "Is Life Threatening",
          "dataType": "text",
          "sasFormat": null,
          "mandatory": false,
          "keySequence": null,
          "methodOid": "MT.ADAE.AESLIFE",
          "codelist": {
            "name": "YN",
            "items": [
              {
                "value": "Y",
                "label": "Y"
              },
              {
                "value": "N",
                "label": "N"
              }
            ]
          }
        },
        {
          "oid": "IT.ADAE.AESOD",
          "name": "AESOD",
          "label": "Occurred with Overdose",
          "dataType": "text",
          "sasFormat": null,
          "mandatory": false,
          "keySequence": null,
          "methodOid": "MT.ADAE.AESOD",
          "codelist": {
            "name": "YN",
            "items": [
              {
                "value": "Y",
                "label": "Y"
              },
              {
                "value": "N",
                "label": "N"
              }
            ]
          }
        },
        {
          "oid": "IT.ADAE.AEREL",
          "name": "AEREL",
          "label": "Causality",
          "dataType": "text",
          "sasFormat": null,
          "mandatory": false,
          "keySequence": null,
          "methodOid": "MT.ADAE.AEREL",
          "codelist": {
            "name": "AECAUS",
            "items": [
              {
                "value": "NONE",
                "label": "NONE"
              },
              {
                "value": "POSSIBLE",
                "label": "POSSIBLE"
              },
              {
                "value": "PROBABLE",
                "label": "PROBABLE"
              },
              {
                "value": "REMOTE",
                "label": "REMOTE"
              }
            ]
          }
        },
        {
          "oid": "IT.ADAE.AEACN",
          "name": "AEACN",
          "label": "Action Taken with Study Treatment",
          "dataType": "text",
          "sasFormat": null,
          "mandatory": false,
          "keySequence": null,
          "methodOid": "MT.ADAE.AEACN",
          "codelist": null
        },
        {
          "oid": "IT.ADAE.AEOUT",
          "name": "AEOUT",
          "label": "Outcome of Adverse Event",
          "dataType": "text",
          "sasFormat": null,
          "mandatory": false,
          "keySequence": null,
          "methodOid": "MT.ADAE.AEOUT",
          "codelist": {
            "name": "OUT",
            "items": [
              {
                "value": "RECOVERED/RESOLVED",
                "label": "RECOVERED/RESOLVED"
              },
              {
                "value": "NOT RECOVERED/NOT RESOLVED",
                "label": "NOT RECOVERED/NOT RESOLVED"
              },
              {
                "value": "FATAL",
                "label": "FATAL"
              }
            ]
          }
        },
        {
          "oid": "IT.ADAE.TRTEMFL",
          "name": "TRTEMFL",
          "label": "Treatment Emergent Analysis Flag",
          "dataType": "text",
          "sasFormat": null,
          "mandatory": false,
          "keySequence": null,
          "methodOid": "MT.ADAE.TRTEMFL",
          "codelist": {
            "name": "YN",
            "items": [
              {
                "value": "Y",
                "label": "Y"
              },
              {
                "value": "N",
                "label": "N"
              }
            ]
          }
        },
        {
          "oid": "IT.ADAE.AOCCFL",
          "name": "AOCCFL",
          "label": "1st Occurrence of Any AE Flag",
          "dataType": "text",
          "sasFormat": null,
          "mandatory": false,
          "keySequence": null,
          "methodOid": "MT.ADAE.AOCCFL",
          "codelist": {
            "name": "Y_BLANK",
            "items": [
              {
                "value": "Y",
                "label": "Yes"
              }
            ]
          }
        },
        {
          "oid": "IT.ADAE.AOCCSFL",
          "name": "AOCCSFL",
          "label": "1st Occurrence of SOC Flag",
          "dataType": "text",
          "sasFormat": null,
          "mandatory": false,
          "keySequence": null,
          "methodOid": "MT.ADAE.AOCCSFL",
          "codelist": {
            "name": "Y_BLANK",
            "items": [
              {
                "value": "Y",
                "label": "Yes"
              }
            ]
          }
        },
        {
          "oid": "IT.ADAE.AOCCPFL",
          "name": "AOCCPFL",
          "label": "1st Occurrence of Preferred Term Flag",
          "dataType": "text",
          "sasFormat": null,
          "mandatory": false,
          "keySequence": null,
          "methodOid": "MT.ADAE.AOCCPFL",
          "codelist": {
            "name": "Y_BLANK",
            "items": [
              {
                "value": "Y",
                "label": "Yes"
              }
            ]
          }
        },
        {
          "oid": "IT.ADAE.AOCC02FL",
          "name": "AOCC02FL",
          "label": "1st Occurrence 02 Flag for Serious",
          "dataType": "text",
          "sasFormat": null,
          "mandatory": false,
          "keySequence": null,
          "methodOid": "MT.ADAE.AOCC02FL",
          "codelist": {
            "name": "Y_BLANK",
            "items": [
              {
                "value": "Y",
                "label": "Yes"
              }
            ]
          }
        },
        {
          "oid": "IT.ADAE.AOCC03FL",
          "name": "AOCC03FL",
          "label": "1st Occurrence 03 Flag for Serious SOC",
          "dataType": "text",
          "sasFormat": null,
          "mandatory": false,
          "keySequence": null,
          "methodOid": "MT.ADAE.AOCC03FL",
          "codelist": {
            "name": "Y_BLANK",
            "items": [
              {
                "value": "Y",
                "label": "Yes"
              }
            ]
          }
        },
        {
          "oid": "IT.ADAE.AOCC04FL",
          "name": "AOCC04FL",
          "label": "1st Occurrence 04 Flag for Serious PT",
          "dataType": "text",
          "sasFormat": null,
          "mandatory": false,
          "keySequence": null,
          "methodOid": "MT.ADAE.AOCC04FL",
          "codelist": {
            "name": "Y_BLANK",
            "items": [
              {
                "value": "Y",
                "label": "Yes"
              }
            ]
          }
        },
        {
          "oid": "IT.ADAE.CQ01NAM",
          "name": "CQ01NAM",
          "label": "Customized Query 01 Name",
          "dataType": "text",
          "sasFormat": null,
          "mandatory": false,
          "keySequence": null,
          "methodOid": "MT.ADAE.CQ01NAM",
          "codelist": null
        },
        {
          "oid": "IT.ADAE.AOCC01FL",
          "name": "AOCC01FL",
          "label": "1st Occurrence 01 Flag for CQ01",
          "dataType": "text",
          "sasFormat": null,
          "mandatory": false,
          "keySequence": null,
          "methodOid": "MT.ADAE.AOCC01FL",
          "codelist": {
            "name": "Y_BLANK",
            "items": [
              {
                "value": "Y",
                "label": "Yes"
              }
            ]
          }
        }
      ]
    },
    "ADCIBC": {
      "oid": "IG.ADCIBC",
      "name": "ADCIBC",
      "domain": null,
      "repeating": true,
      "sasName": "ADCIBC",
      "description": "CIBIC+ Analysis",
      "variables": [
        {
          "oid": "IT.ADCIBC.USUBJID",
          "name": "USUBJID",
          "label": "Unique Subject Identifier",
          "dataType": "text",
          "sasFormat": null,
          "mandatory": false,
          "keySequence": 1,
          "methodOid": "MT.ADQSCIBC.USUBJID",
          "codelist": null
        },
        {
          "oid": "IT.ADCIBC.PARAMCD",
          "name": "PARAMCD",
          "label": "Parameter Code",
          "dataType": "text",
          "sasFormat": null,
          "mandatory": false,
          "keySequence": 2,
          "methodOid": "MT.ADQSCIBC.PARAMCD",
          "codelist": {
            "name": "PARAMCD_ADQSCIBC",
            "items": [
              {
                "value": "CIBICVAL",
                "label": "CIBIC Score"
              }
            ]
          }
        },
        {
          "oid": "IT.ADCIBC.AVISIT",
          "name": "AVISIT",
          "label": "Analysis Visit",
          "dataType": "text",
          "sasFormat": null,
          "mandatory": false,
          "keySequence": 3,
          "methodOid": "MT.ADQSCIBC.AVISIT",
          "codelist": {
            "name": "AVISIT",
            "items": [
              {
                "value": "Baseline",
                "label": "Baseline"
              },
              {
                "value": "Week 2",
                "label": "Week 2"
              },
              {
                "value": "Week 4",
                "label": "Week 4"
              },
              {
                "value": "Week 6",
                "label": "Week 6"
              },
              {
                "value": "Week 8",
                "label": "Week 8"
              },
              {
                "value": "Week 10",
                "label": "Week 10"
              },
              {
                "value": "Week 12",
                "label": "Week 12"
              },
              {
                "value": "Week 14",
                "label": "Week 14"
              },
              {
                "value": "Week 16",
                "label": "Week 16"
              },
              {
                "value": "Week 18",
                "label": "Week 18"
              },
              {
                "value": "Week 20",
                "label": "Week 20"
              },
              {
                "value": "Week 22",
                "label": "Week 22"
              },
              {
                "value": "Week 24",
                "label": "Week 24"
              },
              {
                "value": "Week 26",
                "label": "Week 26"
              },
              {
                "value": "Weeks 4-24",
                "label": "Weeks 4-24"
              },
              {
                "value": "End of Treatment",
                "label": "End of Treatment"
              }
            ]
          }
        },
        {
          "oid": "IT.ADCIBC.ADT",
          "name": "ADT",
          "label": "Analysis Date",
          "dataType": "integer",
          "sasFormat": null,
          "mandatory": false,
          "keySequence": 4,
          "methodOid": "MT.ADQSCIBC.ADT",
          "codelist": null
        },
        {
          "oid": "IT.ADCIBC.STUDYID",
          "name": "STUDYID",
          "label": "Study Identifier",
          "dataType": "text",
          "sasFormat": null,
          "mandatory": false,
          "keySequence": null,
          "methodOid": "MT.ADQSCIBC.STUDYID",
          "codelist": null
        },
        {
          "oid": "IT.ADCIBC.SITEID",
          "name": "SITEID",
          "label": "Study Site Identifier",
          "dataType": "text",
          "sasFormat": null,
          "mandatory": false,
          "keySequence": null,
          "methodOid": "MT.ADQSCIBC.SITEID",
          "codelist": null
        },
        {
          "oid": "IT.ADCIBC.SITEGR1",
          "name": "SITEGR1",
          "label": "Pooled Site Group 1",
          "dataType": "text",
          "sasFormat": null,
          "mandatory": false,
          "keySequence": null,
          "methodOid": "MT.ADQSCIBC.SITEGR1",
          "codelist": null
        },
        {
          "oid": "IT.ADCIBC.TRTSDT",
          "name": "TRTSDT",
          "label": "Date of First Exposure to Treatment",
          "dataType": "integer",
          "sasFormat": null,
          "mandatory": false,
          "keySequence": null,
          "methodOid": "MT.ADQSCIBC.TRTSDT",
          "codelist": null
        },
        {
          "oid": "IT.ADCIBC.TRTEDT",
          "name": "TRTEDT",
          "label": "Date of Last Exposure to Treatment",
          "dataType": "integer",
          "sasFormat": null,
          "mandatory": false,
          "keySequence": null,
          "methodOid": "MT.ADQSCIBC.TRTEDT",
          "codelist": null
        },
        {
          "oid": "IT.ADCIBC.TRTP",
          "name": "TRTP",
          "label": "Planned Treatment",
          "dataType": "text",
          "sasFormat": null,
          "mandatory": false,
          "keySequence": null,
          "methodOid": "MT.ADQSCIBC.TRTP",
          "codelist": {
            "name": "ARM",
            "items": [
              {
                "value": "Placebo",
                "label": "Placebo"
              },
              {
                "value": "Xanomeline Low Dose",
                "label": "Xanomeline Low Dose"
              },
              {
                "value": "Xanomeline High Dose",
                "label": "Xanomeline High Dose"
              }
            ]
          }
        },
        {
          "oid": "IT.ADCIBC.TRTPN",
          "name": "TRTPN",
          "label": "Planned Treatment (N)",
          "dataType": "integer",
          "sasFormat": null,
          "mandatory": false,
          "keySequence": null,
          "methodOid": "MT.ADQSCIBC.TRTPN",
          "codelist": {
            "name": "ARMN",
            "items": [
              {
                "value": "0",
                "label": "Placebo"
              },
              {
                "value": "54",
                "label": "Xanomeline Low Dose"
              },
              {
                "value": "81",
                "label": "Xanomeline High Dose"
              }
            ]
          }
        },
        {
          "oid": "IT.ADCIBC.AGE",
          "name": "AGE",
          "label": "Age",
          "dataType": "integer",
          "sasFormat": null,
          "mandatory": false,
          "keySequence": null,
          "methodOid": "MT.ADQSCIBC.AGE",
          "codelist": null
        },
        {
          "oid": "IT.ADCIBC.AGEGR1",
          "name": "AGEGR1",
          "label": "Pooled Age Group 1",
          "dataType": "text",
          "sasFormat": null,
          "mandatory": false,
          "keySequence": null,
          "methodOid": "MT.ADQSCIBC.AGEGR1",
          "codelist": {
            "name": "AGEGR1",
            "items": [
              {
                "value": "<65",
                "label": "<65"
              },
              {
                "value": "65-80",
                "label": "65-80"
              },
              {
                "value": ">80",
                "label": ">80"
              }
            ]
          }
        },
        {
          "oid": "IT.ADCIBC.AGEGR1N",
          "name": "AGEGR1N",
          "label": "Pooled Age Group 1 (N)",
          "dataType": "integer",
          "sasFormat": null,
          "mandatory": false,
          "keySequence": null,
          "methodOid": "MT.ADQSCIBC.AGEGR1N",
          "codelist": {
            "name": "AGEGR1N",
            "items": [
              {
                "value": "1",
                "label": "<65"
              },
              {
                "value": "2",
                "label": "65-80"
              },
              {
                "value": "3",
                "label": ">80"
              }
            ]
          }
        },
        {
          "oid": "IT.ADCIBC.RACE",
          "name": "RACE",
          "label": "Race",
          "dataType": "text",
          "sasFormat": null,
          "mandatory": false,
          "keySequence": null,
          "methodOid": "MT.ADQSCIBC.RACE",
          "codelist": {
            "name": "RACE",
            "items": [
              {
                "value": "AMERICAN INDIAN OR ALASKA NATIVE",
                "label": "1"
              },
              {
                "value": "ASIAN",
                "label": "2"
              },
              {
                "value": "BLACK OR AFRICAN AMERICAN",
                "label": "3"
              },
              {
                "value": "NATIVE HAWAIIAN OR OTHER PACIFIC ISLANDER",
                "label": "5"
              },
              {
                "value": "WHITE",
                "label": "6"
              }
            ]
          }
        },
        {
          "oid": "IT.ADCIBC.RACEN",
          "name": "RACEN",
          "label": "Race (N)",
          "dataType": "integer",
          "sasFormat": null,
          "mandatory": false,
          "keySequence": null,
          "methodOid": "MT.ADQSCIBC.RACEN",
          "codelist": {
            "name": "RACEN",
            "items": [
              {
                "value": "1",
                "label": "AMERICAN INDIAN OR ALASKA NATIVE"
              },
              {
                "value": "2",
                "label": "ASIAN"
              },
              {
                "value": "3",
                "label": "BLACK OR AFRICAN AMERICAN"
              },
              {
                "value": "5",
                "label": "NATIVE HAWAIIAN OR OTHER PACIFIC ISLANDER"
              },
              {
                "value": "6",
                "label": "WHITE"
              }
            ]
          }
        },
        {
          "oid": "IT.ADCIBC.SEX",
          "name": "SEX",
          "label": "Sex",
          "dataType": "text",
          "sasFormat": null,
          "mandatory": false,
          "keySequence": null,
          "methodOid": "MT.ADQSCIBC.SEX",
          "codelist": {
            "name": "SEX",
            "items": [
              {
                "value": "M",
                "label": "M"
              },
              {
                "value": "F",
                "label": "F"
              }
            ]
          }
        },
        {
          "oid": "IT.ADCIBC.ITTFL",
          "name": "ITTFL",
          "label": "Intent-to-Treat Population Flag",
          "dataType": "text",
          "sasFormat": null,
          "mandatory": false,
          "keySequence": null,
          "methodOid": "MT.ADQSCIBC.ITTFL",
          "codelist": {
            "name": "YN",
            "items": [
              {
                "value": "Y",
                "label": "Y"
              },
              {
                "value": "N",
                "label": "N"
              }
            ]
          }
        },
        {
          "oid": "IT.ADCIBC.EFFFL",
          "name": "EFFFL",
          "label": "Efficacy Population Flag",
          "dataType": "text",
          "sasFormat": null,
          "mandatory": false,
          "keySequence": null,
          "methodOid": "MT.ADQSCIBC.EFFFL",
          "codelist": {
            "name": "YN",
            "items": [
              {
                "value": "Y",
                "label": "Y"
              },
              {
                "value": "N",
                "label": "N"
              }
            ]
          }
        },
        {
          "oid": "IT.ADCIBC.COMP24FL",
          "name": "COMP24FL",
          "label": "Completers of Week 24 Population Flag",
          "dataType": "text",
          "sasFormat": null,
          "mandatory": false,
          "keySequence": null,
          "methodOid": "MT.ADQSCIBC.COMP24FL",
          "codelist": {
            "name": "YN",
            "items": [
              {
                "value": "Y",
                "label": "Y"
              },
              {
                "value": "N",
                "label": "N"
              }
            ]
          }
        },
        {
          "oid": "IT.ADCIBC.AVISITN",
          "name": "AVISITN",
          "label": "Analysis Visit (N)",
          "dataType": "integer",
          "sasFormat": null,
          "mandatory": false,
          "keySequence": null,
          "methodOid": "MT.ADQSCIBC.AVISITN",
          "codelist": {
            "name": "AVISITN",
            "items": [
              {
                "value": "0",
                "label": "Baseline"
              },
              {
                "value": "2",
                "label": "Week 2"
              },
              {
                "value": "4",
                "label": "Week 4"
              },
              {
                "value": "6",
                "label": "Week 6"
              },
              {
                "value": "8",
                "label": "Week 8"
              },
              {
                "value": "10",
                "label": "Week 10"
              },
              {
                "value": "12",
                "label": "Week 12"
              },
              {
                "value": "14",
                "label": "Week 14"
              },
              {
                "value": "16",
                "label": "Week 16"
              },
              {
                "value": "18",
                "label": "Week 18"
              },
              {
                "value": "20",
                "label": "Week 20"
              },
              {
                "value": "22",
                "label": "Week 22"
              },
              {
                "value": "24",
                "label": "Week 24"
              },
              {
                "value": "26",
                "label": "Week 26"
              },
              {
                "value": "98",
                "label": "Weeks 4-24"
              },
              {
                "value": "99",
                "label": "End of Treatment"
              }
            ]
          }
        },
        {
          "oid": "IT.ADCIBC.VISIT",
          "name": "VISIT",
          "label": "Visit Name",
          "dataType": "text",
          "sasFormat": null,
          "mandatory": false,
          "keySequence": null,
          "methodOid": "MT.ADQSCIBC.VISIT",
          "codelist": {
            "name": "VISIT",
            "items": [
              {
                "value": "SCREENING 1",
                "label": "SCREENING 1"
              },
              {
                "value": "UNSCHEDULED 1.1",
                "label": "UNSCHEDULED 1.1"
              },
              {
                "value": "UNSCHEDULED 1.2",
                "label": "UNSCHEDULED 1.2"
              },
              {
                "value": "UNSCHEDULED 1.3",
                "label": "UNSCHEDULED 1.3"
              },
              {
                "value": "SCREENING 2",
                "label": "SCREENING 2"
              },
              {
                "value": "BASELINE",
                "label": "BASELINE"
              },
              {
                "value": "UNSCHEDULED 3.1",
                "label": "UNSCHEDULED 3.1"
              },
              {
                "value": "AMBUL ECG PLACEMENT",
                "label": "AMBUL ECG PLACEMENT"
              },
              {
                "value": "WEEK 2",
                "label": "WEEK 2"
              },
              {
                "value": "UNSCHEDULED 4.1",
                "label": "UNSCHEDULED 4.1"
              },
              {
                "value": "UNSCHEDULED 4.2",
                "label": "UNSCHEDULED 4.2"
              },
              {
                "value": "WEEK 4",
                "label": "WEEK 4"
              },
              {
                "value": "UNSCHEDULED 5.1",
                "label": "UNSCHEDULED 5.1"
              },
              {
                "value": "AMBUL ECG REMOVAL",
                "label": "AMBUL ECG REMOVAL"
              },
              {
                "value": "UNSCHEDULED 6.1",
                "label": "UNSCHEDULED 6.1"
              },
              {
                "value": "WEEK 6",
                "label": "WEEK 6"
              },
              {
                "value": "UNSCHEDULED 7.1",
                "label": "UNSCHEDULED 7.1"
              },
              {
                "value": "WEEK 8",
                "label": "WEEK 8"
              },
              {
                "value": "WEEK 10 (T)",
                "label": "WEEK 10 (T)"
              },
              {
                "value": "UNSCHEDULED 8.2",
                "label": "UNSCHEDULED 8.2"
              },
              {
                "value": "WEEK 12",
                "label": "WEEK 12"
              },
              {
                "value": "WEEK 14 (T)",
                "label": "WEEK 14 (T)"
              },
              {
                "value": "UNSCHEDULED 9.2",
                "label": "UNSCHEDULED 9.2"
              },
              {
                "value": "UNSCHEDULED 9.3",
                "label": "UNSCHEDULED 9.3"
              },
              {
                "value": "WEEK 16",
                "label": "WEEK 16"
              },
              {
                "value": "WEEK 18 (T)",
                "label": "WEEK 18 (T)"
              },
              {
                "value": "UNSCHEDULED 10.2",
                "label": "UNSCHEDULED 10.2"
              },
              {
                "value": "WEEK 20",
                "label": "WEEK 20"
              },
              {
                "value": "WEEK 22 (T)",
                "label": "WEEK 22 (T)"
              },
              {
                "value": "UNSCHEDULED 11.2",
                "label": "UNSCHEDULED 11.2"
              },
              {
                "value": "WEEK 24",
                "label": "WEEK 24"
              },
              {
                "value": "UNSCHEDULED 12.1",
                "label": "UNSCHEDULED 12.1"
              },
              {
                "value": "WEEK 26",
                "label": "WEEK 26"
              },
              {
                "value": "UNSCHEDULED 13.1",
                "label": "UNSCHEDULED 13.1"
              },
              {
                "value": "AE FOLLOW-UP",
                "label": "AE FOLLOW-UP"
              },
              {
                "value": "RETRIEVAL",
                "label": "RETRIEVAL"
              },
              {
                "value": "Rash followup",
                "label": "Rash followup"
              }
            ]
          }
        },
        {
          "oid": "IT.ADCIBC.VISITNUM",
          "name": "VISITNUM",
          "label": "Visit Number",
          "dataType": "float",
          "sasFormat": null,
          "mandatory": false,
          "keySequence": null,
          "methodOid": "MT.ADQSCIBC.VISITNUM",
          "codelist": {
            "name": "VISITNUM",
            "items": [
              {
                "value": "1",
                "label": "SCREENING 1"
              },
              {
                "value": "1.1",
                "label": "UNSCHEDULED 1.1"
              },
              {
                "value": "1.2",
                "label": "UNSCHEDULED 1.2"
              },
              {
                "value": "1.3",
                "label": "UNSCHEDULED 1.3"
              },
              {
                "value": "2",
                "label": "SCREENING 2"
              },
              {
                "value": "3",
                "label": "BASELINE"
              },
              {
                "value": "3.1",
                "label": "UNSCHEDULED 3.1"
              },
              {
                "value": "3.5",
                "label": "AMBUL ECG PLACEMENT"
              },
              {
                "value": "4",
                "label": "WEEK 2"
              },
              {
                "value": "4.1",
                "label": "UNSCHEDULED 4.1"
              },
              {
                "value": "4.2",
                "label": "UNSCHEDULED 4.2"
              },
              {
                "value": "5",
                "label": "WEEK 4"
              },
              {
                "value": "5.1",
                "label": "UNSCHEDULED 5.1"
              },
              {
                "value": "6",
                "label": "AMBUL ECG REMOVAL"
              },
              {
                "value": "6.1",
                "label": "UNSCHEDULED 6.1"
              },
              {
                "value": "7",
                "label": "WEEK 6"
              },
              {
                "value": "7.1",
                "label": "UNSCHEDULED 7.1"
              },
              {
                "value": "8",
                "label": "WEEK 8"
              },
              {
                "value": "8.1",
                "label": "WEEK 10 (T)"
              },
              {
                "value": "8.2",
                "label": "UNSCHEDULED 8.2"
              },
              {
                "value": "9",
                "label": "WEEK 12"
              },
              {
                "value": "9.1",
                "label": "WEEK 14 (T)"
              },
              {
                "value": "9.2",
                "label": "UNSCHEDULED 9.2"
              },
              {
                "value": "9.3",
                "label": "UNSCHEDULED 9.3"
              },
              {
                "value": "10",
                "label": "WEEK 16"
              },
              {
                "value": "10.1",
                "label": "WEEK 18 (T)"
              },
              {
                "value": "10.2",
                "label": "UNSCHEDULED 10.2"
              },
              {
                "value": "11",
                "label": "WEEK 20"
              },
              {
                "value": "11.1",
                "label": "WEEK 22 (T)"
              },
              {
                "value": "11.2",
                "label": "UNSCHEDULED 11.2"
              },
              {
                "value": "12",
                "label": "WEEK 24"
              },
              {
                "value": "12.1",
                "label": "UNSCHEDULED 12.1"
              },
              {
                "value": "13",
                "label": "WEEK 26"
              },
              {
                "value": "13.1",
                "label": "UNSCHEDULED 13.1"
              },
              {
                "value": "101",
                "label": "AE FOLLOW-UP"
              },
              {
                "value": "201",
                "label": "RETRIEVAL"
              },
              {
                "value": "501",
                "label": "Rash followup"
              }
            ]
          }
        },
        {
          "oid": "IT.ADCIBC.ADY",
          "name": "ADY",
          "label": "Analysis Relative Day",
          "dataType": "integer",
          "sasFormat": null,
          "mandatory": false,
          "keySequence": null,
          "methodOid": "MT.ADQSCIBC.ADY",
          "codelist": null
        },
        {
          "oid": "IT.ADCIBC.PARAM",
          "name": "PARAM",
          "label": "Parameter",
          "dataType": "text",
          "sasFormat": null,
          "mandatory": false,
          "keySequence": null,
          "methodOid": "MT.ADQSCIBC.PARAM",
          "codelist": {
            "name": "PARAM_ADQSCIBC",
            "items": [
              {
                "value": "CIBIC Score",
                "label": "CIBIC Score"
              }
            ]
          }
        },
        {
          "oid": "IT.ADCIBC.PARAMN",
          "name": "PARAMN",
          "label": "Parameter (N)",
          "dataType": "integer",
          "sasFormat": null,
          "mandatory": false,
          "keySequence": null,
          "methodOid": "MT.ADQSCIBC.PARAMN",
          "codelist": {
            "name": "PARAMN_ADQSCIBC",
            "items": [
              {
                "value": "1",
                "label": "CIBIC Score"
              }
            ]
          }
        },
        {
          "oid": "IT.ADCIBC.AVAL",
          "name": "AVAL",
          "label": "Analysis Value",
          "dataType": "integer",
          "sasFormat": null,
          "mandatory": false,
          "keySequence": null,
          "methodOid": "MT.ADQSCIBC.AVAL",
          "codelist": null
        },
        {
          "oid": "IT.ADCIBC.ANL01FL",
          "name": "ANL01FL",
          "label": "Analysis Flag 01",
          "dataType": "text",
          "sasFormat": null,
          "mandatory": false,
          "keySequence": null,
          "methodOid": "MT.ADQSCIBC.ANL01FL",
          "codelist": {
            "name": "Y_BLANK",
            "items": [
              {
                "value": "Y",
                "label": "Yes"
              }
            ]
          }
        },
        {
          "oid": "IT.ADCIBC.DTYPE",
          "name": "DTYPE",
          "label": "Derivation Type",
          "dataType": "text",
          "sasFormat": null,
          "mandatory": false,
          "keySequence": null,
          "methodOid": "MT.ADQSCIBC.DTYPE",
          "codelist": {
            "name": "DTYPE",
            "items": [
              {
                "value": "LOCF",
                "label": "Last Observation Carried Forward"
              },
              {
                "value": "AVERAGE",
                "label": "Average"
              }
            ]
          }
        },
        {
          "oid": "IT.ADCIBC.AWRANGE",
          "name": "AWRANGE",
          "label": "Analysis Window Valid Relative Range",
          "dataType": "text",
          "sasFormat": null,
          "mandatory": false,
          "keySequence": null,
          "methodOid": "MT.ADQSCIBC.AWRANGE",
          "codelist": null
        },
        {
          "oid": "IT.ADCIBC.AWTARGET",
          "name": "AWTARGET",
          "label": "Analysis Window Target",
          "dataType": "integer",
          "sasFormat": null,
          "mandatory": false,
          "keySequence": null,
          "methodOid": "MT.ADQSCIBC.AWTARGET",
          "codelist": null
        },
        {
          "oid": "IT.ADCIBC.AWTDIFF",
          "name": "AWTDIFF",
          "label": "Analysis Window Diff from Target",
          "dataType": "integer",
          "sasFormat": null,
          "mandatory": false,
          "keySequence": null,
          "methodOid": "MT.ADQSCIBC.AWTDIFF",
          "codelist": null
        },
        {
          "oid": "IT.ADCIBC.AWLO",
          "name": "AWLO",
          "label": "Analysis Window Beginning Timepoint",
          "dataType": "integer",
          "sasFormat": null,
          "mandatory": false,
          "keySequence": null,
          "methodOid": "MT.ADQSCIBC.AWLO",
          "codelist": null
        },
        {
          "oid": "IT.ADCIBC.AWHI",
          "name": "AWHI",
          "label": "Analysis Window Ending Timepoint",
          "dataType": "integer",
          "sasFormat": null,
          "mandatory": false,
          "keySequence": null,
          "methodOid": "MT.ADQSCIBC.AWHI",
          "codelist": null
        },
        {
          "oid": "IT.ADCIBC.AWU",
          "name": "AWU",
          "label": "Analysis Window Unit",
          "dataType": "text",
          "sasFormat": null,
          "mandatory": false,
          "keySequence": null,
          "methodOid": "MT.ADQSCIBC.AWU",
          "codelist": {
            "name": "AWU",
            "items": [
              {
                "value": "DAYS",
                "label": "DAYS"
              }
            ]
          }
        },
        {
          "oid": "IT.ADCIBC.QSSEQ",
          "name": "QSSEQ",
          "label": "Sequence Number",
          "dataType": "integer",
          "sasFormat": null,
          "mandatory": false,
          "keySequence": null,
          "methodOid": "MT.ADQSCIBC.QSSEQ",
          "codelist": null
        }
      ]
    },
    "ADLBC": {
      "oid": "IG.ADLBC",
      "name": "ADLBC",
      "domain": null,
      "repeating": true,
      "sasName": "ADLBC",
      "description": "Analysis Dataset Lab Blood Chemistry",
      "variables": [
        {
          "oid": "IT.ADLBC.USUBJID",
          "name": "USUBJID",
          "label": "Unique Subject Identifier",
          "dataType": "text",
          "sasFormat": null,
          "mandatory": false,
          "keySequence": 1,
          "methodOid": "MT.ADLBC.USUBJID",
          "codelist": null
        },
        {
          "oid": "IT.ADLBC.PARAMCD",
          "name": "PARAMCD",
          "label": "Parameter Code",
          "dataType": "text",
          "sasFormat": null,
          "mandatory": false,
          "keySequence": 2,
          "methodOid": "MT.ADLBC.PARAMCD",
          "codelist": {
            "name": "PARAMCD_ADLBC",
            "items": [
              {
                "value": "ALB",
                "label": "Albumin (g/L)"
              },
              {
                "value": "ALP",
                "label": "Alkaline Phosphatase (U/L)"
              },
              {
                "value": "ALT",
                "label": "Alanine Aminotransferase (U/L)"
              },
              {
                "value": "AST",
                "label": "Aspartate Aminotransferase (U/L)"
              },
              {
                "value": "BILI",
                "label": "Bilirubin (umol/L)"
              },
              {
                "value": "BUN",
                "label": "Blood Urea Nitrogen (mmol/L)"
              },
              {
                "value": "CA",
                "label": "Calcium (mmol/L)"
              },
              {
                "value": "CHOL",
                "label": "Cholesterol (mmol/L)"
              },
              {
                "value": "CK",
                "label": "Creatine Kinase (U/L)"
              },
              {
                "value": "CL",
                "label": "Chloride (mmol/L)"
              },
              {
                "value": "CREAT",
                "label": "Creatinine (umol/L)"
              },
              {
                "value": "GGT",
                "label": "Gamma Glutamyl Transferase (U/L)"
              },
              {
                "value": "GLUC",
                "label": "Glucose (mmol/L)"
              },
              {
                "value": "K",
                "label": "Potassium (mmol/L)"
              },
              {
                "value": "PHOS",
                "label": "Phosphate (mmol/L)"
              },
              {
                "value": "PROT",
                "label": "Protein (g/L)"
              },
              {
                "value": "SODIUM",
                "label": "Sodium (mmol/L)"
              },
              {
                "value": "URATE",
                "label": "Urate (umol/L)"
              },
              {
                "value": "_ALB",
                "label": "Albumin (g/L) change from previous visit, relative to normal range"
              },
              {
                "value": "_ALP",
                "label": "Alkaline Phosphatase (U/L) change from previous visit, relative to normal range"
              },
              {
                "value": "_ALT",
                "label": "Alanine Aminotransferase (U/L) change from previous visit, relative to normal range"
              },
              {
                "value": "_AST",
                "label": "Aspartate Aminotransferase (U/L) change from previous visit, relative to normal range"
              },
              {
                "value": "_BILI",
                "label": "Bilirubin (umol/L) change from previous visit, relative to normal range"
              },
              {
                "value": "_BUN",
                "label": "Blood Urea Nitrogen (mmol/L) change from previous visit, relative to normal range"
              },
              {
                "value": "_CA",
                "label": "Calcium (mmol/L) change from previous visit, relative to normal range"
              },
              {
                "value": "_CHOL",
                "label": "Cholesterol (mmol/L) change from previous visit, relative to normal range"
              },
              {
                "value": "_CK",
                "label": "Creatine Kinase (U/L) change from previous visit, relative to normal range"
              },
              {
                "value": "_CL",
                "label": "Chloride (mmol/L) change from previous visit, relative to normal range"
              },
              {
                "value": "_CREAT",
                "label": "Creatinine (umol/L) change from previous visit, relative to normal range"
              },
              {
                "value": "_GGT",
                "label": "Gamma Glutamyl Transferase (U/L) change from previous visit, relative to normal range"
              },
              {
                "value": "_GLUC",
                "label": "Glucose (mmol/L) change from previous visit, relative to normal range"
              },
              {
                "value": "_K",
                "label": "Potassium (mmol/L) change from previous visit, relative to normal range"
              },
              {
                "value": "_PHOS",
                "label": "Phosphate (mmol/L) change from previous visit, relative to normal range"
              },
              {
                "value": "_PROT",
                "label": "Protein (g/L) change from previous visit, relative to normal range"
              },
              {
                "value": "_SODIUM",
                "label": "Sodium (mmol/L) change from previous visit, relative to normal range"
              },
              {
                "value": "_URATE",
                "label": "Urate (umol/L) change from previous visit, relative to normal range"
              }
            ]
          }
        },
        {
          "oid": "IT.ADLBC.AVISIT",
          "name": "AVISIT",
          "label": "Analysis Visit",
          "dataType": "text",
          "sasFormat": null,
          "mandatory": false,
          "keySequence": 3,
          "methodOid": "MT.ADLBC.AVISIT",
          "codelist": {
            "name": "AVISIT",
            "items": [
              {
                "value": "Baseline",
                "label": "Baseline"
              },
              {
                "value": "Week 2",
                "label": "Week 2"
              },
              {
                "value": "Week 4",
                "label": "Week 4"
              },
              {
                "value": "Week 6",
                "label": "Week 6"
              },
              {
                "value": "Week 8",
                "label": "Week 8"
              },
              {
                "value": "Week 10",
                "label": "Week 10"
              },
              {
                "value": "Week 12",
                "label": "Week 12"
              },
              {
                "value": "Week 14",
                "label": "Week 14"
              },
              {
                "value": "Week 16",
                "label": "Week 16"
              },
              {
                "value": "Week 18",
                "label": "Week 18"
              },
              {
                "value": "Week 20",
                "label": "Week 20"
              },
              {
                "value": "Week 22",
                "label": "Week 22"
              },
              {
                "value": "Week 24",
                "label": "Week 24"
              },
              {
                "value": "Week 26",
                "label": "Week 26"
              },
              {
                "value": "Weeks 4-24",
                "label": "Weeks 4-24"
              },
              {
                "value": "End of Treatment",
                "label": "End of Treatment"
              }
            ]
          }
        },
        {
          "oid": "IT.ADLBC.LBSEQ",
          "name": "LBSEQ",
          "label": "Sequence Number",
          "dataType": "integer",
          "sasFormat": null,
          "mandatory": false,
          "keySequence": 4,
          "methodOid": "MT.ADLBC.LBSEQ",
          "codelist": null
        },
        {
          "oid": "IT.ADLBC.STUDYID",
          "name": "STUDYID",
          "label": "Study Identifier",
          "dataType": "text",
          "sasFormat": null,
          "mandatory": false,
          "keySequence": null,
          "methodOid": "MT.ADLBC.STUDYID",
          "codelist": null
        },
        {
          "oid": "IT.ADLBC.SUBJID",
          "name": "SUBJID",
          "label": "Subject Identifier for the Study",
          "dataType": "text",
          "sasFormat": null,
          "mandatory": false,
          "keySequence": null,
          "methodOid": "MT.ADLBC.SUBJID",
          "codelist": null
        },
        {
          "oid": "IT.ADLBC.TRTP",
          "name": "TRTP",
          "label": "Planned Treatment",
          "dataType": "text",
          "sasFormat": null,
          "mandatory": false,
          "keySequence": null,
          "methodOid": "MT.ADLBC.TRTP",
          "codelist": {
            "name": "ARM",
            "items": [
              {
                "value": "Placebo",
                "label": "Placebo"
              },
              {
                "value": "Xanomeline Low Dose",
                "label": "Xanomeline Low Dose"
              },
              {
                "value": "Xanomeline High Dose",
                "label": "Xanomeline High Dose"
              }
            ]
          }
        },
        {
          "oid": "IT.ADLBC.TRTPN",
          "name": "TRTPN",
          "label": "Planned Treatment (N)",
          "dataType": "integer",
          "sasFormat": null,
          "mandatory": false,
          "keySequence": null,
          "methodOid": "MT.ADLBC.TRTPN",
          "codelist": {
            "name": "ARMN",
            "items": [
              {
                "value": "0",
                "label": "Placebo"
              },
              {
                "value": "54",
                "label": "Xanomeline Low Dose"
              },
              {
                "value": "81",
                "label": "Xanomeline High Dose"
              }
            ]
          }
        },
        {
          "oid": "IT.ADLBC.TRTA",
          "name": "TRTA",
          "label": "Actual Treatment",
          "dataType": "text",
          "sasFormat": null,
          "mandatory": false,
          "keySequence": null,
          "methodOid": "MT.ADLBC.TRTA",
          "codelist": {
            "name": "ARM",
            "items": [
              {
                "value": "Placebo",
                "label": "Placebo"
              },
              {
                "value": "Xanomeline Low Dose",
                "label": "Xanomeline Low Dose"
              },
              {
                "value": "Xanomeline High Dose",
                "label": "Xanomeline High Dose"
              }
            ]
          }
        },
        {
          "oid": "IT.ADLBC.TRTAN",
          "name": "TRTAN",
          "label": "Actual Treatment (N)",
          "dataType": "integer",
          "sasFormat": null,
          "mandatory": false,
          "keySequence": null,
          "methodOid": "MT.ADLBC.TRTAN",
          "codelist": {
            "name": "ARMN",
            "items": [
              {
                "value": "0",
                "label": "Placebo"
              },
              {
                "value": "54",
                "label": "Xanomeline Low Dose"
              },
              {
                "value": "81",
                "label": "Xanomeline High Dose"
              }
            ]
          }
        },
        {
          "oid": "IT.ADLBC.TRTSDT",
          "name": "TRTSDT",
          "label": "Date of First Exposure to Treatment",
          "dataType": "integer",
          "sasFormat": null,
          "mandatory": false,
          "keySequence": null,
          "methodOid": "MT.ADLBC.TRTSDT",
          "codelist": null
        },
        {
          "oid": "IT.ADLBC.TRTEDT",
          "name": "TRTEDT",
          "label": "Date of Last Exposure to Treatment",
          "dataType": "integer",
          "sasFormat": null,
          "mandatory": false,
          "keySequence": null,
          "methodOid": "MT.ADLBC.TRTEDT",
          "codelist": null
        },
        {
          "oid": "IT.ADLBC.AGE",
          "name": "AGE",
          "label": "Age",
          "dataType": "integer",
          "sasFormat": null,
          "mandatory": false,
          "keySequence": null,
          "methodOid": "MT.ADLBC.AGE",
          "codelist": null
        },
        {
          "oid": "IT.ADLBC.AGEGR1",
          "name": "AGEGR1",
          "label": "Pooled Age Group 1",
          "dataType": "text",
          "sasFormat": null,
          "mandatory": false,
          "keySequence": null,
          "methodOid": "MT.ADLBC.AGEGR1",
          "codelist": {
            "name": "AGEGR1",
            "items": [
              {
                "value": "<65",
                "label": "<65"
              },
              {
                "value": "65-80",
                "label": "65-80"
              },
              {
                "value": ">80",
                "label": ">80"
              }
            ]
          }
        },
        {
          "oid": "IT.ADLBC.AGEGR1N",
          "name": "AGEGR1N",
          "label": "Pooled Age Group 1 (N)",
          "dataType": "integer",
          "sasFormat": null,
          "mandatory": false,
          "keySequence": null,
          "methodOid": "MT.ADLBC.AGEGR1N",
          "codelist": {
            "name": "AGEGR1N",
            "items": [
              {
                "value": "1",
                "label": "<65"
              },
              {
                "value": "2",
                "label": "65-80"
              },
              {
                "value": "3",
                "label": ">80"
              }
            ]
          }
        },
        {
          "oid": "IT.ADLBC.RACE",
          "name": "RACE",
          "label": "Race",
          "dataType": "text",
          "sasFormat": null,
          "mandatory": false,
          "keySequence": null,
          "methodOid": "MT.ADLBC.RACE",
          "codelist": {
            "name": "RACE",
            "items": [
              {
                "value": "AMERICAN INDIAN OR ALASKA NATIVE",
                "label": "1"
              },
              {
                "value": "ASIAN",
                "label": "2"
              },
              {
                "value": "BLACK OR AFRICAN AMERICAN",
                "label": "3"
              },
              {
                "value": "NATIVE HAWAIIAN OR OTHER PACIFIC ISLANDER",
                "label": "5"
              },
              {
                "value": "WHITE",
                "label": "6"
              }
            ]
          }
        },
        {
          "oid": "IT.ADLBC.RACEN",
          "name": "RACEN",
          "label": "Race (N)",
          "dataType": "integer",
          "sasFormat": null,
          "mandatory": false,
          "keySequence": null,
          "methodOid": "MT.ADLBC.RACEN",
          "codelist": {
            "name": "RACEN",
            "items": [
              {
                "value": "1",
                "label": "AMERICAN INDIAN OR ALASKA NATIVE"
              },
              {
                "value": "2",
                "label": "ASIAN"
              },
              {
                "value": "3",
                "label": "BLACK OR AFRICAN AMERICAN"
              },
              {
                "value": "5",
                "label": "NATIVE HAWAIIAN OR OTHER PACIFIC ISLANDER"
              },
              {
                "value": "6",
                "label": "WHITE"
              }
            ]
          }
        },
        {
          "oid": "IT.ADLBC.SEX",
          "name": "SEX",
          "label": "Sex",
          "dataType": "text",
          "sasFormat": null,
          "mandatory": false,
          "keySequence": null,
          "methodOid": "MT.ADLBC.SEX",
          "codelist": {
            "name": "SEX",
            "items": [
              {
                "value": "M",
                "label": "M"
              },
              {
                "value": "F",
                "label": "F"
              }
            ]
          }
        },
        {
          "oid": "IT.ADLBC.COMP24FL",
          "name": "COMP24FL",
          "label": "Completers of Week 24 Population Flag",
          "dataType": "text",
          "sasFormat": null,
          "mandatory": false,
          "keySequence": null,
          "methodOid": "MT.ADLBC.COMP24FL",
          "codelist": {
            "name": "YN",
            "items": [
              {
                "value": "Y",
                "label": "Y"
              },
              {
                "value": "N",
                "label": "N"
              }
            ]
          }
        },
        {
          "oid": "IT.ADLBC.DSRAEFL",
          "name": "DSRAEFL",
          "label": "Discontinued due to AE?",
          "dataType": "text",
          "sasFormat": null,
          "mandatory": false,
          "keySequence": null,
          "methodOid": "MT.ADLBC.DSRAEFL",
          "codelist": {
            "name": "YN",
            "items": [
              {
                "value": "Y",
                "label": "Y"
              },
              {
                "value": "N",
                "label": "N"
              }
            ]
          }
        },
        {
          "oid": "IT.ADLBC.SAFFL",
          "name": "SAFFL",
          "label": "Safety Population Flag",
          "dataType": "text",
          "sasFormat": null,
          "mandatory": false,
          "keySequence": null,
          "methodOid": "MT.ADLBC.SAFFL",
          "codelist": {
            "name": "YN",
            "items": [
              {
                "value": "Y",
                "label": "Y"
              },
              {
                "value": "N",
                "label": "N"
              }
            ]
          }
        },
        {
          "oid": "IT.ADLBC.AVISITN",
          "name": "AVISITN",
          "label": "Analysis Visit (N)",
          "dataType": "integer",
          "sasFormat": null,
          "mandatory": false,
          "keySequence": null,
          "methodOid": "MT.ADLBC.AVISITN",
          "codelist": {
            "name": "AVISITN",
            "items": [
              {
                "value": "0",
                "label": "Baseline"
              },
              {
                "value": "2",
                "label": "Week 2"
              },
              {
                "value": "4",
                "label": "Week 4"
              },
              {
                "value": "6",
                "label": "Week 6"
              },
              {
                "value": "8",
                "label": "Week 8"
              },
              {
                "value": "10",
                "label": "Week 10"
              },
              {
                "value": "12",
                "label": "Week 12"
              },
              {
                "value": "14",
                "label": "Week 14"
              },
              {
                "value": "16",
                "label": "Week 16"
              },
              {
                "value": "18",
                "label": "Week 18"
              },
              {
                "value": "20",
                "label": "Week 20"
              },
              {
                "value": "22",
                "label": "Week 22"
              },
              {
                "value": "24",
                "label": "Week 24"
              },
              {
                "value": "26",
                "label": "Week 26"
              },
              {
                "value": "98",
                "label": "Weeks 4-24"
              },
              {
                "value": "99",
                "label": "End of Treatment"
              }
            ]
          }
        },
        {
          "oid": "IT.ADLBC.ADY",
          "name": "ADY",
          "label": "Analysis Relative Day",
          "dataType": "integer",
          "sasFormat": null,
          "mandatory": false,
          "keySequence": null,
          "methodOid": "MT.ADLBC.ADY",
          "codelist": null
        },
        {
          "oid": "IT.ADLBC.ADT",
          "name": "ADT",
          "label": "Analysis Date",
          "dataType": "integer",
          "sasFormat": null,
          "mandatory": false,
          "keySequence": null,
          "methodOid": "MT.ADLBC.ADT",
          "codelist": null
        },
        {
          "oid": "IT.ADLBC.VISIT",
          "name": "VISIT",
          "label": "Visit Name",
          "dataType": "text",
          "sasFormat": null,
          "mandatory": false,
          "keySequence": null,
          "methodOid": "MT.ADLBC.VISIT",
          "codelist": {
            "name": "VISIT",
            "items": [
              {
                "value": "SCREENING 1",
                "label": "SCREENING 1"
              },
              {
                "value": "UNSCHEDULED 1.1",
                "label": "UNSCHEDULED 1.1"
              },
              {
                "value": "UNSCHEDULED 1.2",
                "label": "UNSCHEDULED 1.2"
              },
              {
                "value": "UNSCHEDULED 1.3",
                "label": "UNSCHEDULED 1.3"
              },
              {
                "value": "SCREENING 2",
                "label": "SCREENING 2"
              },
              {
                "value": "BASELINE",
                "label": "BASELINE"
              },
              {
                "value": "UNSCHEDULED 3.1",
                "label": "UNSCHEDULED 3.1"
              },
              {
                "value": "AMBUL ECG PLACEMENT",
                "label": "AMBUL ECG PLACEMENT"
              },
              {
                "value": "WEEK 2",
                "label": "WEEK 2"
              },
              {
                "value": "UNSCHEDULED 4.1",
                "label": "UNSCHEDULED 4.1"
              },
              {
                "value": "UNSCHEDULED 4.2",
                "label": "UNSCHEDULED 4.2"
              },
              {
                "value": "WEEK 4",
                "label": "WEEK 4"
              },
              {
                "value": "UNSCHEDULED 5.1",
                "label": "UNSCHEDULED 5.1"
              },
              {
                "value": "AMBUL ECG REMOVAL",
                "label": "AMBUL ECG REMOVAL"
              },
              {
                "value": "UNSCHEDULED 6.1",
                "label": "UNSCHEDULED 6.1"
              },
              {
                "value": "WEEK 6",
                "label": "WEEK 6"
              },
              {
                "value": "UNSCHEDULED 7.1",
                "label": "UNSCHEDULED 7.1"
              },
              {
                "value": "WEEK 8",
                "label": "WEEK 8"
              },
              {
                "value": "WEEK 10 (T)",
                "label": "WEEK 10 (T)"
              },
              {
                "value": "UNSCHEDULED 8.2",
                "label": "UNSCHEDULED 8.2"
              },
              {
                "value": "WEEK 12",
                "label": "WEEK 12"
              },
              {
                "value": "WEEK 14 (T)",
                "label": "WEEK 14 (T)"
              },
              {
                "value": "UNSCHEDULED 9.2",
                "label": "UNSCHEDULED 9.2"
              },
              {
                "value": "UNSCHEDULED 9.3",
                "label": "UNSCHEDULED 9.3"
              },
              {
                "value": "WEEK 16",
                "label": "WEEK 16"
              },
              {
                "value": "WEEK 18 (T)",
                "label": "WEEK 18 (T)"
              },
              {
                "value": "UNSCHEDULED 10.2",
                "label": "UNSCHEDULED 10.2"
              },
              {
                "value": "WEEK 20",
                "label": "WEEK 20"
              },
              {
                "value": "WEEK 22 (T)",
                "label": "WEEK 22 (T)"
              },
              {
                "value": "UNSCHEDULED 11.2",
                "label": "UNSCHEDULED 11.2"
              },
              {
                "value": "WEEK 24",
                "label": "WEEK 24"
              },
              {
                "value": "UNSCHEDULED 12.1",
                "label": "UNSCHEDULED 12.1"
              },
              {
                "value": "WEEK 26",
                "label": "WEEK 26"
              },
              {
                "value": "UNSCHEDULED 13.1",
                "label": "UNSCHEDULED 13.1"
              },
              {
                "value": "AE FOLLOW-UP",
                "label": "AE FOLLOW-UP"
              },
              {
                "value": "RETRIEVAL",
                "label": "RETRIEVAL"
              },
              {
                "value": "Rash followup",
                "label": "Rash followup"
              }
            ]
          }
        },
        {
          "oid": "IT.ADLBC.VISITNUM",
          "name": "VISITNUM",
          "label": "Visit Number",
          "dataType": "float",
          "sasFormat": null,
          "mandatory": false,
          "keySequence": null,
          "methodOid": "MT.ADLBC.VISITNUM",
          "codelist": {
            "name": "VISITNUM",
            "items": [
              {
                "value": "1",
                "label": "SCREENING 1"
              },
              {
                "value": "1.1",
                "label": "UNSCHEDULED 1.1"
              },
              {
                "value": "1.2",
                "label": "UNSCHEDULED 1.2"
              },
              {
                "value": "1.3",
                "label": "UNSCHEDULED 1.3"
              },
              {
                "value": "2",
                "label": "SCREENING 2"
              },
              {
                "value": "3",
                "label": "BASELINE"
              },
              {
                "value": "3.1",
                "label": "UNSCHEDULED 3.1"
              },
              {
                "value": "3.5",
                "label": "AMBUL ECG PLACEMENT"
              },
              {
                "value": "4",
                "label": "WEEK 2"
              },
              {
                "value": "4.1",
                "label": "UNSCHEDULED 4.1"
              },
              {
                "value": "4.2",
                "label": "UNSCHEDULED 4.2"
              },
              {
                "value": "5",
                "label": "WEEK 4"
              },
              {
                "value": "5.1",
                "label": "UNSCHEDULED 5.1"
              },
              {
                "value": "6",
                "label": "AMBUL ECG REMOVAL"
              },
              {
                "value": "6.1",
                "label": "UNSCHEDULED 6.1"
              },
              {
                "value": "7",
                "label": "WEEK 6"
              },
              {
                "value": "7.1",
                "label": "UNSCHEDULED 7.1"
              },
              {
                "value": "8",
                "label": "WEEK 8"
              },
              {
                "value": "8.1",
                "label": "WEEK 10 (T)"
              },
              {
                "value": "8.2",
                "label": "UNSCHEDULED 8.2"
              },
              {
                "value": "9",
                "label": "WEEK 12"
              },
              {
                "value": "9.1",
                "label": "WEEK 14 (T)"
              },
              {
                "value": "9.2",
                "label": "UNSCHEDULED 9.2"
              },
              {
                "value": "9.3",
                "label": "UNSCHEDULED 9.3"
              },
              {
                "value": "10",
                "label": "WEEK 16"
              },
              {
                "value": "10.1",
                "label": "WEEK 18 (T)"
              },
              {
                "value": "10.2",
                "label": "UNSCHEDULED 10.2"
              },
              {
                "value": "11",
                "label": "WEEK 20"
              },
              {
                "value": "11.1",
                "label": "WEEK 22 (T)"
              },
              {
                "value": "11.2",
                "label": "UNSCHEDULED 11.2"
              },
              {
                "value": "12",
                "label": "WEEK 24"
              },
              {
                "value": "12.1",
                "label": "UNSCHEDULED 12.1"
              },
              {
                "value": "13",
                "label": "WEEK 26"
              },
              {
                "value": "13.1",
                "label": "UNSCHEDULED 13.1"
              },
              {
                "value": "101",
                "label": "AE FOLLOW-UP"
              },
              {
                "value": "201",
                "label": "RETRIEVAL"
              },
              {
                "value": "501",
                "label": "Rash followup"
              }
            ]
          }
        },
        {
          "oid": "IT.ADLBC.PARAM",
          "name": "PARAM",
          "label": "Parameter",
          "dataType": "text",
          "sasFormat": null,
          "mandatory": false,
          "keySequence": null,
          "methodOid": "MT.ADLBC.PARAM",
          "codelist": {
            "name": "PARAM_ADLBC",
            "items": [
              {
                "value": "Albumin (g/L)",
                "label": "Albumin (g/L)"
              },
              {
                "value": "Alkaline Phosphatase (U/L)",
                "label": "Alkaline Phosphatase (U/L)"
              },
              {
                "value": "Alanine Aminotransferase (U/L)",
                "label": "Alanine Aminotransferase (U/L)"
              },
              {
                "value": "Aspartate Aminotransferase (U/L)",
                "label": "Aspartate Aminotransferase (U/L)"
              },
              {
                "value": "Bilirubin (umol/L)",
                "label": "Bilirubin (umol/L)"
              },
              {
                "value": "Blood Urea Nitrogen (mmol/L)",
                "label": "Blood Urea Nitrogen (mmol/L)"
              },
              {
                "value": "Calcium (mmol/L)",
                "label": "Calcium (mmol/L)"
              },
              {
                "value": "Cholesterol (mmol/L)",
                "label": "Cholesterol (mmol/L)"
              },
              {
                "value": "Creatine Kinase (U/L)",
                "label": "Creatine Kinase (U/L)"
              },
              {
                "value": "Chloride (mmol/L)",
                "label": "Chloride (mmol/L)"
              },
              {
                "value": "Creatinine (umol/L)",
                "label": "Creatinine (umol/L)"
              },
              {
                "value": "Gamma Glutamyl Transferase (U/L)",
                "label": "Gamma Glutamyl Transferase (U/L)"
              },
              {
                "value": "Glucose (mmol/L)",
                "label": "Glucose (mmol/L)"
              },
              {
                "value": "Potassium (mmol/L)",
                "label": "Potassium (mmol/L)"
              },
              {
                "value": "Phosphate (mmol/L)",
                "label": "Phosphate (mmol/L)"
              },
              {
                "value": "Protein (g/L)",
                "label": "Protein (g/L)"
              },
              {
                "value": "Sodium (mmol/L)",
                "label": "Sodium (mmol/L)"
              },
              {
                "value": "Urate (umol/L)",
                "label": "Urate (umol/L)"
              },
              {
                "value": "Albumin (g/L) change from previous visit, relative to normal range",
                "label": "Albumin (g/L) change from previous visit, relative to normal range"
              },
              {
                "value": "Alkaline Phosphatase (U/L) change from previous visit, relative to normal range",
                "label": "Alkaline Phosphatase (U/L) change from previous visit, relative to normal range"
              },
              {
                "value": "Alanine Aminotransferase (U/L) change from previous visit, relative to normal range",
                "label": "Alanine Aminotransferase (U/L) change from previous visit, relative to normal range"
              },
              {
                "value": "Aspartate Aminotransferase (U/L) change from previous visit, relative to normal range",
                "label": "Aspartate Aminotransferase (U/L) change from previous visit, relative to normal range"
              },
              {
                "value": "Bilirubin (umol/L) change from previous visit, relative to normal range",
                "label": "Bilirubin (umol/L) change from previous visit, relative to normal range"
              },
              {
                "value": "Blood Urea Nitrogen (mmol/L) change from previous visit, relative to normal range",
                "label": "Blood Urea Nitrogen (mmol/L) change from previous visit, relative to normal range"
              },
              {
                "value": "Calcium (mmol/L) change from previous visit, relative to normal range",
                "label": "Calcium (mmol/L) change from previous visit, relative to normal range"
              },
              {
                "value": "Cholesterol (mmol/L) change from previous visit, relative to normal range",
                "label": "Cholesterol (mmol/L) change from previous visit, relative to normal range"
              },
              {
                "value": "Creatine Kinase (U/L) change from previous visit, relative to normal range",
                "label": "Creatine Kinase (U/L) change from previous visit, relative to normal range"
              },
              {
                "value": "Chloride (mmol/L) change from previous visit, relative to normal range",
                "label": "Chloride (mmol/L) change from previous visit, relative to normal range"
              },
              {
                "value": "Creatinine (umol/L) change from previous visit, relative to normal range",
                "label": "Creatinine (umol/L) change from previous visit, relative to normal range"
              },
              {
                "value": "Gamma Glutamyl Transferase (U/L) change from previous visit, relative to normal range",
                "label": "Gamma Glutamyl Transferase (U/L) change from previous visit, relative to normal range"
              },
              {
                "value": "Glucose (mmol/L) change from previous visit, relative to normal range",
                "label": "Glucose (mmol/L) change from previous visit, relative to normal range"
              },
              {
                "value": "Potassium (mmol/L) change from previous visit, relative to normal range",
                "label": "Potassium (mmol/L) change from previous visit, relative to normal range"
              },
              {
                "value": "Phosphate (mmol/L) change from previous visit, relative to normal range",
                "label": "Phosphate (mmol/L) change from previous visit, relative to normal range"
              },
              {
                "value": "Protein (g/L) change from previous visit, relative to normal range",
                "label": "Protein (g/L) change from previous visit, relative to normal range"
              },
              {
                "value": "Sodium (mmol/L) change from previous visit, relative to normal range",
                "label": "Sodium (mmol/L) change from previous visit, relative to normal range"
              },
              {
                "value": "Urate (umol/L) change from previous visit, relative to normal range",
                "label": "Urate (umol/L) change from previous visit, relative to normal range"
              }
            ]
          }
        },
        {
          "oid": "IT.ADLBC.PARAMN",
          "name": "PARAMN",
          "label": "Parameter (N)",
          "dataType": "integer",
          "sasFormat": null,
          "mandatory": false,
          "keySequence": null,
          "methodOid": "MT.ADLBC.PARAMN",
          "codelist": {
            "name": "PARAMN_ADLBC",
            "items": [
              {
                "value": "18",
                "label": "Sodium (mmol/L)"
              },
              {
                "value": "19",
                "label": "Potassium (mmol/L)"
              },
              {
                "value": "20",
                "label": "Chloride (mmol/L)"
              },
              {
                "value": "21",
                "label": "Bilirubin (umol/L)"
              },
              {
                "value": "22",
                "label": "Alkaline Phosphatase (U/L)"
              },
              {
                "value": "23",
                "label": "Gamma Glutamyl Transferase (U/L)"
              },
              {
                "value": "24",
                "label": "Alanine Aminotransferase (U/L)"
              },
              {
                "value": "25",
                "label": "Aspartate Aminotransferase (U/L)"
              },
              {
                "value": "26",
                "label": "Blood Urea Nitrogen (mmol/L)"
              },
              {
                "value": "27",
                "label": "Creatinine (umol/L)"
              },
              {
                "value": "28",
                "label": "Urate (umol/L)"
              },
              {
                "value": "29",
                "label": "Phosphate (mmol/L)"
              },
              {
                "value": "30",
                "label": "Calcium (mmol/L)"
              },
              {
                "value": "31",
                "label": "Glucose (mmol/L)"
              },
              {
                "value": "32",
                "label": "Protein (g/L)"
              },
              {
                "value": "33",
                "label": "Albumin (g/L)"
              },
              {
                "value": "34",
                "label": "Cholesterol (mmol/L)"
              },
              {
                "value": "35",
                "label": "Creatine Kinase (U/L)"
              },
              {
                "value": "118",
                "label": "Sodium (mmol/L) change from previous visit, relative to normal range"
              },
              {
                "value": "119",
                "label": "Potassium (mmol/L) change from previous visit, relative to normal range"
              },
              {
                "value": "120",
                "label": "Chloride (mmol/L) change from previous visit, relative to normal range"
              },
              {
                "value": "121",
                "label": "Bilirubin (umol/L) change from previous visit, relative to normal range"
              },
              {
                "value": "122",
                "label": "Alkaline Phosphatase (U/L) change from previous visit, relative to normal range"
              },
              {
                "value": "123",
                "label": "Gamma Glutamyl Transferase (U/L) change from previous visit, relative to normal range"
              },
              {
                "value": "124",
                "label": "Alanine Aminotransferase (U/L) change from previous visit, relative to normal range"
              },
              {
                "value": "125",
                "label": "Aspartate Aminotransferase (U/L) change from previous visit, relative to normal range"
              },
              {
                "value": "126",
                "label": "Blood Urea Nitrogen (mmol/L) change from previous visit, relative to normal range"
              },
              {
                "value": "127",
                "label": "Creatinine (umol/L) change from previous visit, relative to normal range"
              },
              {
                "value": "128",
                "label": "Urate (umol/L) change from previous visit, relative to normal range"
              },
              {
                "value": "129",
                "label": "Phosphate (mmol/L) change from previous visit, relative to normal range"
              },
              {
                "value": "130",
                "label": "Calcium (mmol/L) change from previous visit, relative to normal range"
              },
              {
                "value": "131",
                "label": "Glucose (mmol/L) change from previous visit, relative to normal range"
              },
              {
                "value": "132",
                "label": "Protein (g/L) change from previous visit, relative to normal range"
              },
              {
                "value": "133",
                "label": "Albumin (g/L) change from previous visit, relative to normal range"
              },
              {
                "value": "134",
                "label": "Cholesterol (mmol/L) change from previous visit, relative to normal range"
              },
              {
                "value": "135",
                "label": "Creatine Kinase (U/L) change from previous visit, relative to normal range"
              }
            ]
          }
        },
        {
          "oid": "IT.ADLBC.PARCAT1",
          "name": "PARCAT1",
          "label": "Parameter Category 1",
          "dataType": "text",
          "sasFormat": null,
          "mandatory": false,
          "keySequence": null,
          "methodOid": "MT.ADLBC.PARCAT1",
          "codelist": {
            "name": "ADLBCAT",
            "items": [
              {
                "value": "CHEM",
                "label": "Chemistry"
              },
              {
                "value": "HEM",
                "label": "Hematology"
              },
              {
                "value": "HYLAW",
                "label": "Hy's Law"
              }
            ]
          }
        },
        {
          "oid": "IT.ADLBC.AVAL",
          "name": "AVAL",
          "label": "Analysis Value",
          "dataType": "float",
          "sasFormat": null,
          "mandatory": false,
          "keySequence": null,
          "methodOid": "MT.ADLBC.AVAL",
          "codelist": null
        },
        {
          "oid": "IT.ADLBC.BASE",
          "name": "BASE",
          "label": "Baseline Value",
          "dataType": "float",
          "sasFormat": null,
          "mandatory": false,
          "keySequence": null,
          "methodOid": "MT.ADLBC.BASE",
          "codelist": null
        },
        {
          "oid": "IT.ADLBC.CHG",
          "name": "CHG",
          "label": "Change from Baseline",
          "dataType": "float",
          "sasFormat": null,
          "mandatory": false,
          "keySequence": null,
          "methodOid": "MT.ADLBC.CHG",
          "codelist": null
        },
        {
          "oid": "IT.ADLBC.A1LO",
          "name": "A1LO",
          "label": "Analysis Range 1 Lower Limit",
          "dataType": "float",
          "sasFormat": null,
          "mandatory": false,
          "keySequence": null,
          "methodOid": "MT.ADLBC.A1LO",
          "codelist": null
        },
        {
          "oid": "IT.ADLBC.A1HI",
          "name": "A1HI",
          "label": "Analysis Range 1 Upper Limit",
          "dataType": "float",
          "sasFormat": null,
          "mandatory": false,
          "keySequence": null,
          "methodOid": "MT.ADLBC.A1HI",
          "codelist": null
        },
        {
          "oid": "IT.ADLBC.R2A1LO",
          "name": "R2A1LO",
          "label": "Ratio to Analysis Range 1 Lower Limit",
          "dataType": "float",
          "sasFormat": null,
          "mandatory": false,
          "keySequence": null,
          "methodOid": "MT.ADLBC.R2A1LO",
          "codelist": null
        },
        {
          "oid": "IT.ADLBC.R2A1HI",
          "name": "R2A1HI",
          "label": "Ratio to Analysis Range 1 Upper Limit",
          "dataType": "float",
          "sasFormat": null,
          "mandatory": false,
          "keySequence": null,
          "methodOid": "MT.ADLBC.R2A1HI",
          "codelist": null
        },
        {
          "oid": "IT.ADLBC.BR2A1LO",
          "name": "BR2A1LO",
          "label": "Base Ratio to Analysis Range 1 Lower Lim",
          "dataType": "float",
          "sasFormat": null,
          "mandatory": false,
          "keySequence": null,
          "methodOid": "MT.ADLBC.BR2A1LO",
          "codelist": null
        },
        {
          "oid": "IT.ADLBC.BR2A1HI",
          "name": "BR2A1HI",
          "label": "Base Ratio to Analysis Range 1 Upper Lim",
          "dataType": "float",
          "sasFormat": null,
          "mandatory": false,
          "keySequence": null,
          "methodOid": "MT.ADLBC.BR2A1HI",
          "codelist": null
        },
        {
          "oid": "IT.ADLBC.ANL01FL",
          "name": "ANL01FL",
          "label": "Analysis Flag 01",
          "dataType": "text",
          "sasFormat": null,
          "mandatory": false,
          "keySequence": null,
          "methodOid": "ADLBC.ANL01FL",
          "codelist": {
            "name": "Y_BLANK",
            "items": [
              {
                "value": "Y",
                "label": "Yes"
              }
            ]
          }
        },
        {
          "oid": "IT.ADLBC.ALBTRVAL",
          "name": "ALBTRVAL",
          "label": "Amount Threshold Range",
          "dataType": "float",
          "sasFormat": null,
          "mandatory": false,
          "keySequence": null,
          "methodOid": "MT.ADLBC.ALBTRVAL",
          "codelist": null
        },
        {
          "oid": "IT.ADLBC.ANRIND",
          "name": "ANRIND",
          "label": "Analysis Reference Range Indicator",
          "dataType": "text",
          "sasFormat": null,
          "mandatory": false,
          "keySequence": null,
          "methodOid": "ADLBC.ANRIND",
          "codelist": {
            "name": "LNH",
            "items": [
              {
                "value": "L",
                "label": "Low"
              },
              {
                "value": "N",
                "label": "Normal"
              },
              {
                "value": "H",
                "label": "High"
              }
            ]
          }
        },
        {
          "oid": "IT.ADLBC.BNRIND",
          "name": "BNRIND",
          "label": "Baseline Reference Range Indicator",
          "dataType": "text",
          "sasFormat": null,
          "mandatory": false,
          "keySequence": null,
          "methodOid": "ADLBC.BNRIND",
          "codelist": {
            "name": "LNH",
            "items": [
              {
                "value": "L",
                "label": "Low"
              },
              {
                "value": "N",
                "label": "Normal"
              },
              {
                "value": "H",
                "label": "High"
              }
            ]
          }
        },
        {
          "oid": "IT.ADLBC.ABLFL",
          "name": "ABLFL",
          "label": "Baseline Record Flag",
          "dataType": "text",
          "sasFormat": null,
          "mandatory": false,
          "keySequence": null,
          "methodOid": "ADLBC.ABLFL",
          "codelist": {
            "name": "Y_BLANK",
            "items": [
              {
                "value": "Y",
                "label": "Yes"
              }
            ]
          }
        },
        {
          "oid": "IT.ADLBC.AENTMTFL",
          "name": "AENTMTFL",
          "label": "Last value in treatment visit",
          "dataType": "text",
          "sasFormat": null,
          "mandatory": false,
          "keySequence": null,
          "methodOid": "MT.ADLBC.AENTMTFL",
          "codelist": {
            "name": "Y_BLANK",
            "items": [
              {
                "value": "Y",
                "label": "Yes"
              }
            ]
          }
        },
        {
          "oid": "IT.ADLBC.LBNRIND",
          "name": "LBNRIND",
          "label": "Reference Range Indicator",
          "dataType": "text",
          "sasFormat": null,
          "mandatory": false,
          "keySequence": null,
          "methodOid": "MT.ADLBC.LBNRIND",
          "codelist": {
            "name": "LBNRIND",
            "items": [
              {
                "value": "LOW",
                "label": "LOW"
              },
              {
                "value": "NORMAL",
                "label": "NORMAL"
              },
              {
                "value": "HIGH",
                "label": "HIGH"
              },
              {
                "value": "ABNORMAL",
                "label": "HIGH"
              }
            ]
          }
        },
        {
          "oid": "IT.ADLBC.LBSTRESN",
          "name": "LBSTRESN",
          "label": "Numeric Result/Finding in Standard Units",
          "dataType": "float",
          "sasFormat": null,
          "mandatory": false,
          "keySequence": null,
          "methodOid": "MT.ADLBC.LBSTRESN",
          "codelist": null
        }
      ]
    },
    "ADLBCPV": {
      "oid": "IG.ADLBCPV",
      "name": "ADLBCPV",
      "domain": null,
      "repeating": true,
      "sasName": "ADLBCPV",
      "description": "Analysis Dataset Lab Blood Chemistry (Previous Visit)",
      "variables": [
        {
          "oid": "IT.ADLBCPV.USUBJID",
          "name": "USUBJID",
          "label": "Unique Subject Identifier",
          "dataType": "text",
          "sasFormat": null,
          "mandatory": false,
          "keySequence": 1,
          "methodOid": "MT.ADLBCPV.USUBJID",
          "codelist": null
        },
        {
          "oid": "IT.ADLBCPV.PARAMCD",
          "name": "PARAMCD",
          "label": "Parameter Code",
          "dataType": "text",
          "sasFormat": null,
          "mandatory": false,
          "keySequence": 2,
          "methodOid": "MT.ADLBCPV.PARAMCD",
          "codelist": {
            "name": "PARAMCD_ADLBC",
            "items": [
              {
                "value": "ALB",
                "label": "Albumin (g/L)"
              },
              {
                "value": "ALP",
                "label": "Alkaline Phosphatase (U/L)"
              },
              {
                "value": "ALT",
                "label": "Alanine Aminotransferase (U/L)"
              },
              {
                "value": "AST",
                "label": "Aspartate Aminotransferase (U/L)"
              },
              {
                "value": "BILI",
                "label": "Bilirubin (umol/L)"
              },
              {
                "value": "BUN",
                "label": "Blood Urea Nitrogen (mmol/L)"
              },
              {
                "value": "CA",
                "label": "Calcium (mmol/L)"
              },
              {
                "value": "CHOL",
                "label": "Cholesterol (mmol/L)"
              },
              {
                "value": "CK",
                "label": "Creatine Kinase (U/L)"
              },
              {
                "value": "CL",
                "label": "Chloride (mmol/L)"
              },
              {
                "value": "CREAT",
                "label": "Creatinine (umol/L)"
              },
              {
                "value": "GGT",
                "label": "Gamma Glutamyl Transferase (U/L)"
              },
              {
                "value": "GLUC",
                "label": "Glucose (mmol/L)"
              },
              {
                "value": "K",
                "label": "Potassium (mmol/L)"
              },
              {
                "value": "PHOS",
                "label": "Phosphate (mmol/L)"
              },
              {
                "value": "PROT",
                "label": "Protein (g/L)"
              },
              {
                "value": "SODIUM",
                "label": "Sodium (mmol/L)"
              },
              {
                "value": "URATE",
                "label": "Urate (umol/L)"
              },
              {
                "value": "_ALB",
                "label": "Albumin (g/L) change from previous visit, relative to normal range"
              },
              {
                "value": "_ALP",
                "label": "Alkaline Phosphatase (U/L) change from previous visit, relative to normal range"
              },
              {
                "value": "_ALT",
                "label": "Alanine Aminotransferase (U/L) change from previous visit, relative to normal range"
              },
              {
                "value": "_AST",
                "label": "Aspartate Aminotransferase (U/L) change from previous visit, relative to normal range"
              },
              {
                "value": "_BILI",
                "label": "Bilirubin (umol/L) change from previous visit, relative to normal range"
              },
              {
                "value": "_BUN",
                "label": "Blood Urea Nitrogen (mmol/L) change from previous visit, relative to normal range"
              },
              {
                "value": "_CA",
                "label": "Calcium (mmol/L) change from previous visit, relative to normal range"
              },
              {
                "value": "_CHOL",
                "label": "Cholesterol (mmol/L) change from previous visit, relative to normal range"
              },
              {
                "value": "_CK",
                "label": "Creatine Kinase (U/L) change from previous visit, relative to normal range"
              },
              {
                "value": "_CL",
                "label": "Chloride (mmol/L) change from previous visit, relative to normal range"
              },
              {
                "value": "_CREAT",
                "label": "Creatinine (umol/L) change from previous visit, relative to normal range"
              },
              {
                "value": "_GGT",
                "label": "Gamma Glutamyl Transferase (U/L) change from previous visit, relative to normal range"
              },
              {
                "value": "_GLUC",
                "label": "Glucose (mmol/L) change from previous visit, relative to normal range"
              },
              {
                "value": "_K",
                "label": "Potassium (mmol/L) change from previous visit, relative to normal range"
              },
              {
                "value": "_PHOS",
                "label": "Phosphate (mmol/L) change from previous visit, relative to normal range"
              },
              {
                "value": "_PROT",
                "label": "Protein (g/L) change from previous visit, relative to normal range"
              },
              {
                "value": "_SODIUM",
                "label": "Sodium (mmol/L) change from previous visit, relative to normal range"
              },
              {
                "value": "_URATE",
                "label": "Urate (umol/L) change from previous visit, relative to normal range"
              }
            ]
          }
        },
        {
          "oid": "IT.ADLBCPV.AVISIT",
          "name": "AVISIT",
          "label": "Analysis Visit",
          "dataType": "text",
          "sasFormat": null,
          "mandatory": false,
          "keySequence": 3,
          "methodOid": "MT.ADLBCPV.AVISIT",
          "codelist": {
            "name": "AVISIT",
            "items": [
              {
                "value": "Baseline",
                "label": "Baseline"
              },
              {
                "value": "Week 2",
                "label": "Week 2"
              },
              {
                "value": "Week 4",
                "label": "Week 4"
              },
              {
                "value": "Week 6",
                "label": "Week 6"
              },
              {
                "value": "Week 8",
                "label": "Week 8"
              },
              {
                "value": "Week 10",
                "label": "Week 10"
              },
              {
                "value": "Week 12",
                "label": "Week 12"
              },
              {
                "value": "Week 14",
                "label": "Week 14"
              },
              {
                "value": "Week 16",
                "label": "Week 16"
              },
              {
                "value": "Week 18",
                "label": "Week 18"
              },
              {
                "value": "Week 20",
                "label": "Week 20"
              },
              {
                "value": "Week 22",
                "label": "Week 22"
              },
              {
                "value": "Week 24",
                "label": "Week 24"
              },
              {
                "value": "Week 26",
                "label": "Week 26"
              },
              {
                "value": "Weeks 4-24",
                "label": "Weeks 4-24"
              },
              {
                "value": "End of Treatment",
                "label": "End of Treatment"
              }
            ]
          }
        },
        {
          "oid": "IT.ADLBCPV.LBSEQ",
          "name": "LBSEQ",
          "label": "Sequence Number",
          "dataType": "integer",
          "sasFormat": null,
          "mandatory": false,
          "keySequence": 4,
          "methodOid": "MT.ADLBCPV.LBSEQ",
          "codelist": null
        },
        {
          "oid": "IT.ADLBCPV.STUDYID",
          "name": "STUDYID",
          "label": "Study Identifier",
          "dataType": "text",
          "sasFormat": null,
          "mandatory": false,
          "keySequence": null,
          "methodOid": "MT.ADLBCPV.STUDYID",
          "codelist": null
        },
        {
          "oid": "IT.ADLBCPV.SUBJID",
          "name": "SUBJID",
          "label": "Subject Identifier for the Study",
          "dataType": "text",
          "sasFormat": null,
          "mandatory": false,
          "keySequence": null,
          "methodOid": "MT.ADLBCPV.SUBJID",
          "codelist": null
        },
        {
          "oid": "IT.ADLBCPV.TRTP",
          "name": "TRTP",
          "label": "Planned Treatment",
          "dataType": "text",
          "sasFormat": null,
          "mandatory": false,
          "keySequence": null,
          "methodOid": "MT.ADLBCPV.TRTP",
          "codelist": {
            "name": "ARM",
            "items": [
              {
                "value": "Placebo",
                "label": "Placebo"
              },
              {
                "value": "Xanomeline Low Dose",
                "label": "Xanomeline Low Dose"
              },
              {
                "value": "Xanomeline High Dose",
                "label": "Xanomeline High Dose"
              }
            ]
          }
        },
        {
          "oid": "IT.ADLBCPV.TRTPN",
          "name": "TRTPN",
          "label": "Planned Treatment (N)",
          "dataType": "integer",
          "sasFormat": null,
          "mandatory": false,
          "keySequence": null,
          "methodOid": "MT.ADLBCPV.TRTPN",
          "codelist": {
            "name": "ARMN",
            "items": [
              {
                "value": "0",
                "label": "Placebo"
              },
              {
                "value": "54",
                "label": "Xanomeline Low Dose"
              },
              {
                "value": "81",
                "label": "Xanomeline High Dose"
              }
            ]
          }
        },
        {
          "oid": "IT.ADLBCPV.TRTA",
          "name": "TRTA",
          "label": "Actual Treatment",
          "dataType": "text",
          "sasFormat": null,
          "mandatory": false,
          "keySequence": null,
          "methodOid": "MT.ADLBCPV.TRTA",
          "codelist": {
            "name": "ARM",
            "items": [
              {
                "value": "Placebo",
                "label": "Placebo"
              },
              {
                "value": "Xanomeline Low Dose",
                "label": "Xanomeline Low Dose"
              },
              {
                "value": "Xanomeline High Dose",
                "label": "Xanomeline High Dose"
              }
            ]
          }
        },
        {
          "oid": "IT.ADLBCPV.TRTAN",
          "name": "TRTAN",
          "label": "Actual Treatment (N)",
          "dataType": "integer",
          "sasFormat": null,
          "mandatory": false,
          "keySequence": null,
          "methodOid": "MT.ADLBCPV.TRTAN",
          "codelist": {
            "name": "ARMN",
            "items": [
              {
                "value": "0",
                "label": "Placebo"
              },
              {
                "value": "54",
                "label": "Xanomeline Low Dose"
              },
              {
                "value": "81",
                "label": "Xanomeline High Dose"
              }
            ]
          }
        },
        {
          "oid": "IT.ADLBCPV.TRTSDT",
          "name": "TRTSDT",
          "label": "Date of First Exposure to Treatment",
          "dataType": "integer",
          "sasFormat": null,
          "mandatory": false,
          "keySequence": null,
          "methodOid": "MT.ADLBCPV.TRTSDT",
          "codelist": null
        },
        {
          "oid": "IT.ADLBCPV.TRTEDT",
          "name": "TRTEDT",
          "label": "Date of Last Exposure to Treatment",
          "dataType": "integer",
          "sasFormat": null,
          "mandatory": false,
          "keySequence": null,
          "methodOid": "MT.ADLBCPV.TRTEDT",
          "codelist": null
        },
        {
          "oid": "IT.ADLBCPV.AGE",
          "name": "AGE",
          "label": "Age",
          "dataType": "integer",
          "sasFormat": null,
          "mandatory": false,
          "keySequence": null,
          "methodOid": "MT.ADLBCPV.AGE",
          "codelist": null
        },
        {
          "oid": "IT.ADLBCPV.AGEGR1",
          "name": "AGEGR1",
          "label": "Pooled Age Group 1",
          "dataType": "text",
          "sasFormat": null,
          "mandatory": false,
          "keySequence": null,
          "methodOid": "MT.ADLBCPV.AGEGR1",
          "codelist": {
            "name": "AGEGR1",
            "items": [
              {
                "value": "<65",
                "label": "<65"
              },
              {
                "value": "65-80",
                "label": "65-80"
              },
              {
                "value": ">80",
                "label": ">80"
              }
            ]
          }
        },
        {
          "oid": "IT.ADLBCPV.AGEGR1N",
          "name": "AGEGR1N",
          "label": "Pooled Age Group 1 (N)",
          "dataType": "integer",
          "sasFormat": null,
          "mandatory": false,
          "keySequence": null,
          "methodOid": "MT.ADLBCPV.AGEGR1N",
          "codelist": {
            "name": "AGEGR1N",
            "items": [
              {
                "value": "1",
                "label": "<65"
              },
              {
                "value": "2",
                "label": "65-80"
              },
              {
                "value": "3",
                "label": ">80"
              }
            ]
          }
        },
        {
          "oid": "IT.ADLBCPV.RACE",
          "name": "RACE",
          "label": "Race",
          "dataType": "text",
          "sasFormat": null,
          "mandatory": false,
          "keySequence": null,
          "methodOid": "MT.ADLBCPV.RACE",
          "codelist": {
            "name": "RACE",
            "items": [
              {
                "value": "AMERICAN INDIAN OR ALASKA NATIVE",
                "label": "1"
              },
              {
                "value": "ASIAN",
                "label": "2"
              },
              {
                "value": "BLACK OR AFRICAN AMERICAN",
                "label": "3"
              },
              {
                "value": "NATIVE HAWAIIAN OR OTHER PACIFIC ISLANDER",
                "label": "5"
              },
              {
                "value": "WHITE",
                "label": "6"
              }
            ]
          }
        },
        {
          "oid": "IT.ADLBCPV.RACEN",
          "name": "RACEN",
          "label": "Race (N)",
          "dataType": "integer",
          "sasFormat": null,
          "mandatory": false,
          "keySequence": null,
          "methodOid": "MT.ADLBCPV.RACEN",
          "codelist": {
            "name": "RACEN",
            "items": [
              {
                "value": "1",
                "label": "AMERICAN INDIAN OR ALASKA NATIVE"
              },
              {
                "value": "2",
                "label": "ASIAN"
              },
              {
                "value": "3",
                "label": "BLACK OR AFRICAN AMERICAN"
              },
              {
                "value": "5",
                "label": "NATIVE HAWAIIAN OR OTHER PACIFIC ISLANDER"
              },
              {
                "value": "6",
                "label": "WHITE"
              }
            ]
          }
        },
        {
          "oid": "IT.ADLBCPV.SEX",
          "name": "SEX",
          "label": "Sex",
          "dataType": "text",
          "sasFormat": null,
          "mandatory": false,
          "keySequence": null,
          "methodOid": "MT.ADLBCPV.SEX",
          "codelist": {
            "name": "SEX",
            "items": [
              {
                "value": "M",
                "label": "M"
              },
              {
                "value": "F",
                "label": "F"
              }
            ]
          }
        },
        {
          "oid": "IT.ADLBCPV.COMP24FL",
          "name": "COMP24FL",
          "label": "Completers of Week 24 Population Flag",
          "dataType": "text",
          "sasFormat": null,
          "mandatory": false,
          "keySequence": null,
          "methodOid": "MT.ADLBCPV.COMP24FL",
          "codelist": {
            "name": "YN",
            "items": [
              {
                "value": "Y",
                "label": "Y"
              },
              {
                "value": "N",
                "label": "N"
              }
            ]
          }
        },
        {
          "oid": "IT.ADLBCPV.DSRAEFL",
          "name": "DSRAEFL",
          "label": "Discontinued due to AE?",
          "dataType": "text",
          "sasFormat": null,
          "mandatory": false,
          "keySequence": null,
          "methodOid": "MT.ADLBCPV.DSRAEFL",
          "codelist": {
            "name": "YN",
            "items": [
              {
                "value": "Y",
                "label": "Y"
              },
              {
                "value": "N",
                "label": "N"
              }
            ]
          }
        },
        {
          "oid": "IT.ADLBCPV.SAFFL",
          "name": "SAFFL",
          "label": "Safety Population Flag",
          "dataType": "text",
          "sasFormat": null,
          "mandatory": false,
          "keySequence": null,
          "methodOid": "MT.ADLBCPV.SAFFL",
          "codelist": {
            "name": "YN",
            "items": [
              {
                "value": "Y",
                "label": "Y"
              },
              {
                "value": "N",
                "label": "N"
              }
            ]
          }
        },
        {
          "oid": "IT.ADLBCPV.AVISITN",
          "name": "AVISITN",
          "label": "Analysis Visit (N)",
          "dataType": "integer",
          "sasFormat": null,
          "mandatory": false,
          "keySequence": null,
          "methodOid": "MT.ADLBCPV.AVISITN",
          "codelist": {
            "name": "AVISITN",
            "items": [
              {
                "value": "0",
                "label": "Baseline"
              },
              {
                "value": "2",
                "label": "Week 2"
              },
              {
                "value": "4",
                "label": "Week 4"
              },
              {
                "value": "6",
                "label": "Week 6"
              },
              {
                "value": "8",
                "label": "Week 8"
              },
              {
                "value": "10",
                "label": "Week 10"
              },
              {
                "value": "12",
                "label": "Week 12"
              },
              {
                "value": "14",
                "label": "Week 14"
              },
              {
                "value": "16",
                "label": "Week 16"
              },
              {
                "value": "18",
                "label": "Week 18"
              },
              {
                "value": "20",
                "label": "Week 20"
              },
              {
                "value": "22",
                "label": "Week 22"
              },
              {
                "value": "24",
                "label": "Week 24"
              },
              {
                "value": "26",
                "label": "Week 26"
              },
              {
                "value": "98",
                "label": "Weeks 4-24"
              },
              {
                "value": "99",
                "label": "End of Treatment"
              }
            ]
          }
        },
        {
          "oid": "IT.ADLBCPV.ADY",
          "name": "ADY",
          "label": "Analysis Relative Day",
          "dataType": "integer",
          "sasFormat": null,
          "mandatory": false,
          "keySequence": null,
          "methodOid": "MT.ADLBCPV.ADY",
          "codelist": null
        },
        {
          "oid": "IT.ADLBCPV.ADT",
          "name": "ADT",
          "label": "Analysis Date",
          "dataType": "integer",
          "sasFormat": null,
          "mandatory": false,
          "keySequence": null,
          "methodOid": "MT.ADLBCPV.ADT",
          "codelist": null
        },
        {
          "oid": "IT.ADLBCPV.VISIT",
          "name": "VISIT",
          "label": "Visit Name",
          "dataType": "text",
          "sasFormat": null,
          "mandatory": false,
          "keySequence": null,
          "methodOid": "MT.ADLBCPV.VISIT",
          "codelist": {
            "name": "VISIT",
            "items": [
              {
                "value": "SCREENING 1",
                "label": "SCREENING 1"
              },
              {
                "value": "UNSCHEDULED 1.1",
                "label": "UNSCHEDULED 1.1"
              },
              {
                "value": "UNSCHEDULED 1.2",
                "label": "UNSCHEDULED 1.2"
              },
              {
                "value": "UNSCHEDULED 1.3",
                "label": "UNSCHEDULED 1.3"
              },
              {
                "value": "SCREENING 2",
                "label": "SCREENING 2"
              },
              {
                "value": "BASELINE",
                "label": "BASELINE"
              },
              {
                "value": "UNSCHEDULED 3.1",
                "label": "UNSCHEDULED 3.1"
              },
              {
                "value": "AMBUL ECG PLACEMENT",
                "label": "AMBUL ECG PLACEMENT"
              },
              {
                "value": "WEEK 2",
                "label": "WEEK 2"
              },
              {
                "value": "UNSCHEDULED 4.1",
                "label": "UNSCHEDULED 4.1"
              },
              {
                "value": "UNSCHEDULED 4.2",
                "label": "UNSCHEDULED 4.2"
              },
              {
                "value": "WEEK 4",
                "label": "WEEK 4"
              },
              {
                "value": "UNSCHEDULED 5.1",
                "label": "UNSCHEDULED 5.1"
              },
              {
                "value": "AMBUL ECG REMOVAL",
                "label": "AMBUL ECG REMOVAL"
              },
              {
                "value": "UNSCHEDULED 6.1",
                "label": "UNSCHEDULED 6.1"
              },
              {
                "value": "WEEK 6",
                "label": "WEEK 6"
              },
              {
                "value": "UNSCHEDULED 7.1",
                "label": "UNSCHEDULED 7.1"
              },
              {
                "value": "WEEK 8",
                "label": "WEEK 8"
              },
              {
                "value": "WEEK 10 (T)",
                "label": "WEEK 10 (T)"
              },
              {
                "value": "UNSCHEDULED 8.2",
                "label": "UNSCHEDULED 8.2"
              },
              {
                "value": "WEEK 12",
                "label": "WEEK 12"
              },
              {
                "value": "WEEK 14 (T)",
                "label": "WEEK 14 (T)"
              },
              {
                "value": "UNSCHEDULED 9.2",
                "label": "UNSCHEDULED 9.2"
              },
              {
                "value": "UNSCHEDULED 9.3",
                "label": "UNSCHEDULED 9.3"
              },
              {
                "value": "WEEK 16",
                "label": "WEEK 16"
              },
              {
                "value": "WEEK 18 (T)",
                "label": "WEEK 18 (T)"
              },
              {
                "value": "UNSCHEDULED 10.2",
                "label": "UNSCHEDULED 10.2"
              },
              {
                "value": "WEEK 20",
                "label": "WEEK 20"
              },
              {
                "value": "WEEK 22 (T)",
                "label": "WEEK 22 (T)"
              },
              {
                "value": "UNSCHEDULED 11.2",
                "label": "UNSCHEDULED 11.2"
              },
              {
                "value": "WEEK 24",
                "label": "WEEK 24"
              },
              {
                "value": "UNSCHEDULED 12.1",
                "label": "UNSCHEDULED 12.1"
              },
              {
                "value": "WEEK 26",
                "label": "WEEK 26"
              },
              {
                "value": "UNSCHEDULED 13.1",
                "label": "UNSCHEDULED 13.1"
              },
              {
                "value": "AE FOLLOW-UP",
                "label": "AE FOLLOW-UP"
              },
              {
                "value": "RETRIEVAL",
                "label": "RETRIEVAL"
              },
              {
                "value": "Rash followup",
                "label": "Rash followup"
              }
            ]
          }
        },
        {
          "oid": "IT.ADLBCPV.VISITNUM",
          "name": "VISITNUM",
          "label": "Visit Number",
          "dataType": "float",
          "sasFormat": null,
          "mandatory": false,
          "keySequence": null,
          "methodOid": "MT.ADLBCPV.VISITNUM",
          "codelist": {
            "name": "VISITNUM",
            "items": [
              {
                "value": "1",
                "label": "SCREENING 1"
              },
              {
                "value": "1.1",
                "label": "UNSCHEDULED 1.1"
              },
              {
                "value": "1.2",
                "label": "UNSCHEDULED 1.2"
              },
              {
                "value": "1.3",
                "label": "UNSCHEDULED 1.3"
              },
              {
                "value": "2",
                "label": "SCREENING 2"
              },
              {
                "value": "3",
                "label": "BASELINE"
              },
              {
                "value": "3.1",
                "label": "UNSCHEDULED 3.1"
              },
              {
                "value": "3.5",
                "label": "AMBUL ECG PLACEMENT"
              },
              {
                "value": "4",
                "label": "WEEK 2"
              },
              {
                "value": "4.1",
                "label": "UNSCHEDULED 4.1"
              },
              {
                "value": "4.2",
                "label": "UNSCHEDULED 4.2"
              },
              {
                "value": "5",
                "label": "WEEK 4"
              },
              {
                "value": "5.1",
                "label": "UNSCHEDULED 5.1"
              },
              {
                "value": "6",
                "label": "AMBUL ECG REMOVAL"
              },
              {
                "value": "6.1",
                "label": "UNSCHEDULED 6.1"
              },
              {
                "value": "7",
                "label": "WEEK 6"
              },
              {
                "value": "7.1",
                "label": "UNSCHEDULED 7.1"
              },
              {
                "value": "8",
                "label": "WEEK 8"
              },
              {
                "value": "8.1",
                "label": "WEEK 10 (T)"
              },
              {
                "value": "8.2",
                "label": "UNSCHEDULED 8.2"
              },
              {
                "value": "9",
                "label": "WEEK 12"
              },
              {
                "value": "9.1",
                "label": "WEEK 14 (T)"
              },
              {
                "value": "9.2",
                "label": "UNSCHEDULED 9.2"
              },
              {
                "value": "9.3",
                "label": "UNSCHEDULED 9.3"
              },
              {
                "value": "10",
                "label": "WEEK 16"
              },
              {
                "value": "10.1",
                "label": "WEEK 18 (T)"
              },
              {
                "value": "10.2",
                "label": "UNSCHEDULED 10.2"
              },
              {
                "value": "11",
                "label": "WEEK 20"
              },
              {
                "value": "11.1",
                "label": "WEEK 22 (T)"
              },
              {
                "value": "11.2",
                "label": "UNSCHEDULED 11.2"
              },
              {
                "value": "12",
                "label": "WEEK 24"
              },
              {
                "value": "12.1",
                "label": "UNSCHEDULED 12.1"
              },
              {
                "value": "13",
                "label": "WEEK 26"
              },
              {
                "value": "13.1",
                "label": "UNSCHEDULED 13.1"
              },
              {
                "value": "101",
                "label": "AE FOLLOW-UP"
              },
              {
                "value": "201",
                "label": "RETRIEVAL"
              },
              {
                "value": "501",
                "label": "Rash followup"
              }
            ]
          }
        },
        {
          "oid": "IT.ADLBCPV.PARAM",
          "name": "PARAM",
          "label": "Parameter",
          "dataType": "text",
          "sasFormat": null,
          "mandatory": false,
          "keySequence": null,
          "methodOid": "MT.ADLBCPV.PARAM",
          "codelist": {
            "name": "PARAM_ADLBC",
            "items": [
              {
                "value": "Albumin (g/L)",
                "label": "Albumin (g/L)"
              },
              {
                "value": "Alkaline Phosphatase (U/L)",
                "label": "Alkaline Phosphatase (U/L)"
              },
              {
                "value": "Alanine Aminotransferase (U/L)",
                "label": "Alanine Aminotransferase (U/L)"
              },
              {
                "value": "Aspartate Aminotransferase (U/L)",
                "label": "Aspartate Aminotransferase (U/L)"
              },
              {
                "value": "Bilirubin (umol/L)",
                "label": "Bilirubin (umol/L)"
              },
              {
                "value": "Blood Urea Nitrogen (mmol/L)",
                "label": "Blood Urea Nitrogen (mmol/L)"
              },
              {
                "value": "Calcium (mmol/L)",
                "label": "Calcium (mmol/L)"
              },
              {
                "value": "Cholesterol (mmol/L)",
                "label": "Cholesterol (mmol/L)"
              },
              {
                "value": "Creatine Kinase (U/L)",
                "label": "Creatine Kinase (U/L)"
              },
              {
                "value": "Chloride (mmol/L)",
                "label": "Chloride (mmol/L)"
              },
              {
                "value": "Creatinine (umol/L)",
                "label": "Creatinine (umol/L)"
              },
              {
                "value": "Gamma Glutamyl Transferase (U/L)",
                "label": "Gamma Glutamyl Transferase (U/L)"
              },
              {
                "value": "Glucose (mmol/L)",
                "label": "Glucose (mmol/L)"
              },
              {
                "value": "Potassium (mmol/L)",
                "label": "Potassium (mmol/L)"
              },
              {
                "value": "Phosphate (mmol/L)",
                "label": "Phosphate (mmol/L)"
              },
              {
                "value": "Protein (g/L)",
                "label": "Protein (g/L)"
              },
              {
                "value": "Sodium (mmol/L)",
                "label": "Sodium (mmol/L)"
              },
              {
                "value": "Urate (umol/L)",
                "label": "Urate (umol/L)"
              },
              {
                "value": "Albumin (g/L) change from previous visit, relative to normal range",
                "label": "Albumin (g/L) change from previous visit, relative to normal range"
              },
              {
                "value": "Alkaline Phosphatase (U/L) change from previous visit, relative to normal range",
                "label": "Alkaline Phosphatase (U/L) change from previous visit, relative to normal range"
              },
              {
                "value": "Alanine Aminotransferase (U/L) change from previous visit, relative to normal range",
                "label": "Alanine Aminotransferase (U/L) change from previous visit, relative to normal range"
              },
              {
                "value": "Aspartate Aminotransferase (U/L) change from previous visit, relative to normal range",
                "label": "Aspartate Aminotransferase (U/L) change from previous visit, relative to normal range"
              },
              {
                "value": "Bilirubin (umol/L) change from previous visit, relative to normal range",
                "label": "Bilirubin (umol/L) change from previous visit, relative to normal range"
              },
              {
                "value": "Blood Urea Nitrogen (mmol/L) change from previous visit, relative to normal range",
                "label": "Blood Urea Nitrogen (mmol/L) change from previous visit, relative to normal range"
              },
              {
                "value": "Calcium (mmol/L) change from previous visit, relative to normal range",
                "label": "Calcium (mmol/L) change from previous visit, relative to normal range"
              },
              {
                "value": "Cholesterol (mmol/L) change from previous visit, relative to normal range",
                "label": "Cholesterol (mmol/L) change from previous visit, relative to normal range"
              },
              {
                "value": "Creatine Kinase (U/L) change from previous visit, relative to normal range",
                "label": "Creatine Kinase (U/L) change from previous visit, relative to normal range"
              },
              {
                "value": "Chloride (mmol/L) change from previous visit, relative to normal range",
                "label": "Chloride (mmol/L) change from previous visit, relative to normal range"
              },
              {
                "value": "Creatinine (umol/L) change from previous visit, relative to normal range",
                "label": "Creatinine (umol/L) change from previous visit, relative to normal range"
              },
              {
                "value": "Gamma Glutamyl Transferase (U/L) change from previous visit, relative to normal range",
                "label": "Gamma Glutamyl Transferase (U/L) change from previous visit, relative to normal range"
              },
              {
                "value": "Glucose (mmol/L) change from previous visit, relative to normal range",
                "label": "Glucose (mmol/L) change from previous visit, relative to normal range"
              },
              {
                "value": "Potassium (mmol/L) change from previous visit, relative to normal range",
                "label": "Potassium (mmol/L) change from previous visit, relative to normal range"
              },
              {
                "value": "Phosphate (mmol/L) change from previous visit, relative to normal range",
                "label": "Phosphate (mmol/L) change from previous visit, relative to normal range"
              },
              {
                "value": "Protein (g/L) change from previous visit, relative to normal range",
                "label": "Protein (g/L) change from previous visit, relative to normal range"
              },
              {
                "value": "Sodium (mmol/L) change from previous visit, relative to normal range",
                "label": "Sodium (mmol/L) change from previous visit, relative to normal range"
              },
              {
                "value": "Urate (umol/L) change from previous visit, relative to normal range",
                "label": "Urate (umol/L) change from previous visit, relative to normal range"
              }
            ]
          }
        },
        {
          "oid": "IT.ADLBCPV.PARAMN",
          "name": "PARAMN",
          "label": "Parameter (N)",
          "dataType": "integer",
          "sasFormat": null,
          "mandatory": false,
          "keySequence": null,
          "methodOid": "MT.ADLBCPV.PARAMN",
          "codelist": {
            "name": "PARAMN_ADLBC",
            "items": [
              {
                "value": "18",
                "label": "Sodium (mmol/L)"
              },
              {
                "value": "19",
                "label": "Potassium (mmol/L)"
              },
              {
                "value": "20",
                "label": "Chloride (mmol/L)"
              },
              {
                "value": "21",
                "label": "Bilirubin (umol/L)"
              },
              {
                "value": "22",
                "label": "Alkaline Phosphatase (U/L)"
              },
              {
                "value": "23",
                "label": "Gamma Glutamyl Transferase (U/L)"
              },
              {
                "value": "24",
                "label": "Alanine Aminotransferase (U/L)"
              },
              {
                "value": "25",
                "label": "Aspartate Aminotransferase (U/L)"
              },
              {
                "value": "26",
                "label": "Blood Urea Nitrogen (mmol/L)"
              },
              {
                "value": "27",
                "label": "Creatinine (umol/L)"
              },
              {
                "value": "28",
                "label": "Urate (umol/L)"
              },
              {
                "value": "29",
                "label": "Phosphate (mmol/L)"
              },
              {
                "value": "30",
                "label": "Calcium (mmol/L)"
              },
              {
                "value": "31",
                "label": "Glucose (mmol/L)"
              },
              {
                "value": "32",
                "label": "Protein (g/L)"
              },
              {
                "value": "33",
                "label": "Albumin (g/L)"
              },
              {
                "value": "34",
                "label": "Cholesterol (mmol/L)"
              },
              {
                "value": "35",
                "label": "Creatine Kinase (U/L)"
              },
              {
                "value": "118",
                "label": "Sodium (mmol/L) change from previous visit, relative to normal range"
              },
              {
                "value": "119",
                "label": "Potassium (mmol/L) change from previous visit, relative to normal range"
              },
              {
                "value": "120",
                "label": "Chloride (mmol/L) change from previous visit, relative to normal range"
              },
              {
                "value": "121",
                "label": "Bilirubin (umol/L) change from previous visit, relative to normal range"
              },
              {
                "value": "122",
                "label": "Alkaline Phosphatase (U/L) change from previous visit, relative to normal range"
              },
              {
                "value": "123",
                "label": "Gamma Glutamyl Transferase (U/L) change from previous visit, relative to normal range"
              },
              {
                "value": "124",
                "label": "Alanine Aminotransferase (U/L) change from previous visit, relative to normal range"
              },
              {
                "value": "125",
                "label": "Aspartate Aminotransferase (U/L) change from previous visit, relative to normal range"
              },
              {
                "value": "126",
                "label": "Blood Urea Nitrogen (mmol/L) change from previous visit, relative to normal range"
              },
              {
                "value": "127",
                "label": "Creatinine (umol/L) change from previous visit, relative to normal range"
              },
              {
                "value": "128",
                "label": "Urate (umol/L) change from previous visit, relative to normal range"
              },
              {
                "value": "129",
                "label": "Phosphate (mmol/L) change from previous visit, relative to normal range"
              },
              {
                "value": "130",
                "label": "Calcium (mmol/L) change from previous visit, relative to normal range"
              },
              {
                "value": "131",
                "label": "Glucose (mmol/L) change from previous visit, relative to normal range"
              },
              {
                "value": "132",
                "label": "Protein (g/L) change from previous visit, relative to normal range"
              },
              {
                "value": "133",
                "label": "Albumin (g/L) change from previous visit, relative to normal range"
              },
              {
                "value": "134",
                "label": "Cholesterol (mmol/L) change from previous visit, relative to normal range"
              },
              {
                "value": "135",
                "label": "Creatine Kinase (U/L) change from previous visit, relative to normal range"
              }
            ]
          }
        },
        {
          "oid": "IT.ADLBCPV.PARCAT1",
          "name": "PARCAT1",
          "label": "Parameter Category 1",
          "dataType": "text",
          "sasFormat": null,
          "mandatory": false,
          "keySequence": null,
          "methodOid": "MT.ADLBCPV.PARCAT1",
          "codelist": {
            "name": "ADLBCAT",
            "items": [
              {
                "value": "CHEM",
                "label": "Chemistry"
              },
              {
                "value": "HEM",
                "label": "Hematology"
              },
              {
                "value": "HYLAW",
                "label": "Hy's Law"
              }
            ]
          }
        },
        {
          "oid": "IT.ADLBCPV.AVAL",
          "name": "AVAL",
          "label": "Analysis Value",
          "dataType": "float",
          "sasFormat": null,
          "mandatory": false,
          "keySequence": null,
          "methodOid": "ADLBCPV.AVAL",
          "codelist": null
        },
        {
          "oid": "IT.ADLBCPV.BASE",
          "name": "BASE",
          "label": "Baseline Value",
          "dataType": "float",
          "sasFormat": null,
          "mandatory": false,
          "keySequence": null,
          "methodOid": "ADLBCPV.BASE",
          "codelist": null
        },
        {
          "oid": "IT.ADLBCPV.CHG",
          "name": "CHG",
          "label": "Change from Baseline",
          "dataType": "float",
          "sasFormat": null,
          "mandatory": false,
          "keySequence": null,
          "methodOid": "ADLBCPV.CHG",
          "codelist": null
        },
        {
          "oid": "IT.ADLBCPV.A1LO",
          "name": "A1LO",
          "label": "Analysis Range 1 Lower Limit",
          "dataType": "float",
          "sasFormat": null,
          "mandatory": false,
          "keySequence": null,
          "methodOid": "MT.ADLBCPV.A1LO",
          "codelist": null
        },
        {
          "oid": "IT.ADLBCPV.A1HI",
          "name": "A1HI",
          "label": "Analysis Range 1 Upper Limit",
          "dataType": "float",
          "sasFormat": null,
          "mandatory": false,
          "keySequence": null,
          "methodOid": "MT.ADLBCPV.A1HI",
          "codelist": null
        },
        {
          "oid": "IT.ADLBCPV.R2A1LO",
          "name": "R2A1LO",
          "label": "Ratio to Analysis Range 1 Lower Limit",
          "dataType": "float",
          "sasFormat": null,
          "mandatory": false,
          "keySequence": null,
          "methodOid": "MT.ADLBCPV.R2A1LO",
          "codelist": null
        },
        {
          "oid": "IT.ADLBCPV.R2A1HI",
          "name": "R2A1HI",
          "label": "Ratio to Analysis Range 1 Upper Limit",
          "dataType": "float",
          "sasFormat": null,
          "mandatory": false,
          "keySequence": null,
          "methodOid": "MT.ADLBCPV.R2A1HI",
          "codelist": null
        },
        {
          "oid": "IT.ADLBCPV.BR2A1LO",
          "name": "BR2A1LO",
          "label": "Base Ratio to Analysis Range 1 Lower Lim",
          "dataType": "float",
          "sasFormat": null,
          "mandatory": false,
          "keySequence": null,
          "methodOid": "MT.ADLBCPV.BR2A1LO",
          "codelist": null
        },
        {
          "oid": "IT.ADLBCPV.BR2A1HI",
          "name": "BR2A1HI",
          "label": "Base Ratio to Analysis Range 1 Upper Lim",
          "dataType": "float",
          "sasFormat": null,
          "mandatory": false,
          "keySequence": null,
          "methodOid": "MT.ADLBCPV.BR2A1HI",
          "codelist": null
        },
        {
          "oid": "IT.ADLBCPV.ANL01FL",
          "name": "ANL01FL",
          "label": "Analysis Flag 01",
          "dataType": "text",
          "sasFormat": null,
          "mandatory": false,
          "keySequence": null,
          "methodOid": "ADLBCPV.ANL01FL",
          "codelist": {
            "name": "Y_BLANK",
            "items": [
              {
                "value": "Y",
                "label": "Yes"
              }
            ]
          }
        },
        {
          "oid": "IT.ADLBCPV.ALBTRVAL",
          "name": "ALBTRVAL",
          "label": "Amount Threshold Range",
          "dataType": "float",
          "sasFormat": null,
          "mandatory": false,
          "keySequence": null,
          "methodOid": "MT.ADLBCPV.ALBTRVAL",
          "codelist": null
        },
        {
          "oid": "IT.ADLBCPV.ANRIND",
          "name": "ANRIND",
          "label": "Analysis Reference Range Indicator",
          "dataType": "text",
          "sasFormat": null,
          "mandatory": false,
          "keySequence": null,
          "methodOid": "ADLBCPV.ANRIND",
          "codelist": {
            "name": "LNH",
            "items": [
              {
                "value": "L",
                "label": "Low"
              },
              {
                "value": "N",
                "label": "Normal"
              },
              {
                "value": "H",
                "label": "High"
              }
            ]
          }
        },
        {
          "oid": "IT.ADLBCPV.BNRIND",
          "name": "BNRIND",
          "label": "Baseline Reference Range Indicator",
          "dataType": "text",
          "sasFormat": null,
          "mandatory": false,
          "keySequence": null,
          "methodOid": "ADLBCPV.BNRIND",
          "codelist": {
            "name": "LNH",
            "items": [
              {
                "value": "L",
                "label": "Low"
              },
              {
                "value": "N",
                "label": "Normal"
              },
              {
                "value": "H",
                "label": "High"
              }
            ]
          }
        },
        {
          "oid": "IT.ADLBCPV.ABLFL",
          "name": "ABLFL",
          "label": "Baseline Record Flag",
          "dataType": "text",
          "sasFormat": null,
          "mandatory": false,
          "keySequence": null,
          "methodOid": "ADLBCPV.ABLFL",
          "codelist": {
            "name": "Y_BLANK",
            "items": [
              {
                "value": "Y",
                "label": "Yes"
              }
            ]
          }
        },
        {
          "oid": "IT.ADLBCPV.AENTMTFL",
          "name": "AENTMTFL",
          "label": "Last value in treatment visit",
          "dataType": "text",
          "sasFormat": null,
          "mandatory": false,
          "keySequence": null,
          "methodOid": "MT.ADLBCPV.AENTMTFL",
          "codelist": {
            "name": "Y_BLANK",
            "items": [
              {
                "value": "Y",
                "label": "Yes"
              }
            ]
          }
        },
        {
          "oid": "IT.ADLBCPV.LBNRIND",
          "name": "LBNRIND",
          "label": "Reference Range Indicator",
          "dataType": "text",
          "sasFormat": null,
          "mandatory": false,
          "keySequence": null,
          "methodOid": "MT.ADLBCPV.LBNRIND",
          "codelist": {
            "name": "LBNRIND",
            "items": [
              {
                "value": "LOW",
                "label": "LOW"
              },
              {
                "value": "NORMAL",
                "label": "NORMAL"
              },
              {
                "value": "HIGH",
                "label": "HIGH"
              },
              {
                "value": "ABNORMAL",
                "label": "HIGH"
              }
            ]
          }
        },
        {
          "oid": "IT.ADLBCPV.LBSTRESN",
          "name": "LBSTRESN",
          "label": "Numeric Result/Finding in Standard Units",
          "dataType": "float",
          "sasFormat": null,
          "mandatory": false,
          "keySequence": null,
          "methodOid": "MT.ADLBCPV.LBSTRESN",
          "codelist": null
        }
      ]
    },
    "ADLBH": {
      "oid": "IG.ADLBH",
      "name": "ADLBH",
      "domain": null,
      "repeating": true,
      "sasName": "ADLBH",
      "description": "Analysis Dataset Lab Hematology",
      "variables": [
        {
          "oid": "IT.ADLBH.USUBJID",
          "name": "USUBJID",
          "label": "Unique Subject Identifier",
          "dataType": "text",
          "sasFormat": null,
          "mandatory": false,
          "keySequence": 1,
          "methodOid": "MT.ADLBH.USUBJID",
          "codelist": null
        },
        {
          "oid": "IT.ADLBH.PARAMCD",
          "name": "PARAMCD",
          "label": "Parameter Code",
          "dataType": "text",
          "sasFormat": null,
          "mandatory": false,
          "keySequence": 2,
          "methodOid": "MT.ADLBH.PARAMCD",
          "codelist": {
            "name": "PARAMCD_ADLBH",
            "items": [
              {
                "value": "ANISO",
                "label": "Anisocytes"
              },
              {
                "value": "BASO",
                "label": "Basophils (GI/L)"
              },
              {
                "value": "EOS",
                "label": "Eosinophils (GI/L)"
              },
              {
                "value": "HCT",
                "label": "Hematocrit"
              },
              {
                "value": "HGB",
                "label": "Hemoglobin (mmol/L)"
              },
              {
                "value": "LYM",
                "label": "Lymphocytes (GI/L)"
              },
              {
                "value": "MACROCY",
                "label": "Macrocytes"
              },
              {
                "value": "MCH",
                "label": "Ery. Mean Corpuscular Hemoglobin (fmol(Fe))"
              },
              {
                "value": "MCHC",
                "label": "Ery. Mean Corpuscular HGB Concentration (mmol/L)"
              },
              {
                "value": "MCV",
                "label": "Ery. Mean Corpuscular Volume (fL)"
              },
              {
                "value": "MICROCY",
                "label": "Microcytes"
              },
              {
                "value": "MONO",
                "label": "Monocytes (GI/L)"
              },
              {
                "value": "PLAT",
                "label": "Platelet (GI/L)"
              },
              {
                "value": "POIKILO",
                "label": "Poikilocytes"
              },
              {
                "value": "POLYCHR",
                "label": "Polychromasia"
              },
              {
                "value": "RBC",
                "label": "Erythrocytes (TI/L)"
              },
              {
                "value": "WBC",
                "label": "Leukocytes (GI/L)"
              },
              {
                "value": "_ANISO",
                "label": "Anisocytes change from previous visit, relative to normal range"
              },
              {
                "value": "_BASO",
                "label": "Basophils (GI/L) change from previous visit, relative to normal range"
              },
              {
                "value": "_EOS",
                "label": "Eosinophils (GI/L) change from previous visit, relative to normal range"
              },
              {
                "value": "_HCT",
                "label": "Hematocrit change from previous visit, relative to normal range"
              },
              {
                "value": "_HGB",
                "label": "Hemoglobin (mmol/L) change from previous visit, relative to normal range"
              },
              {
                "value": "_LYM",
                "label": "Lymphocytes (GI/L) change from previous visit, relative to normal range"
              },
              {
                "value": "_MACROCY",
                "label": "Macrocytes change from previous visit, relative to normal range"
              },
              {
                "value": "_MCH",
                "label": "Ery. Mean Corpuscular Hemoglobin (fmol(Fe)) change from previous visit, relative to normal range"
              },
              {
                "value": "_MCHC",
                "label": "Ery. Mean Corpuscular HGB Concentration (mmol/L) change from previous visit, relative to normal rang"
              },
              {
                "value": "_MCV",
                "label": "Ery. Mean Corpuscular Volume (fL) change from previous visit, relative to normal range"
              },
              {
                "value": "_MICROCY",
                "label": "Microcytes change from previous visit, relative to normal range"
              },
              {
                "value": "_MONO",
                "label": "Monocytes (GI/L) change from previous visit, relative to normal range"
              },
              {
                "value": "_PLAT",
                "label": "Platelet (GI/L) change from previous visit, relative to normal range"
              },
              {
                "value": "_POIKILO",
                "label": "Poikilocytes change from previous visit, relative to normal range"
              },
              {
                "value": "_POLYCHR",
                "label": "Polychromasia change from previous visit, relative to normal range"
              },
              {
                "value": "_RBC",
                "label": "Erythrocytes (TI/L) change from previous visit, relative to normal range"
              },
              {
                "value": "_WBC",
                "label": "Leukocytes (GI/L) change from previous visit, relative to normal range"
              }
            ]
          }
        },
        {
          "oid": "IT.ADLBH.AVISIT",
          "name": "AVISIT",
          "label": "Analysis Visit",
          "dataType": "text",
          "sasFormat": null,
          "mandatory": false,
          "keySequence": 3,
          "methodOid": "MT.ADLBH.AVISIT",
          "codelist": {
            "name": "AVISIT",
            "items": [
              {
                "value": "Baseline",
                "label": "Baseline"
              },
              {
                "value": "Week 2",
                "label": "Week 2"
              },
              {
                "value": "Week 4",
                "label": "Week 4"
              },
              {
                "value": "Week 6",
                "label": "Week 6"
              },
              {
                "value": "Week 8",
                "label": "Week 8"
              },
              {
                "value": "Week 10",
                "label": "Week 10"
              },
              {
                "value": "Week 12",
                "label": "Week 12"
              },
              {
                "value": "Week 14",
                "label": "Week 14"
              },
              {
                "value": "Week 16",
                "label": "Week 16"
              },
              {
                "value": "Week 18",
                "label": "Week 18"
              },
              {
                "value": "Week 20",
                "label": "Week 20"
              },
              {
                "value": "Week 22",
                "label": "Week 22"
              },
              {
                "value": "Week 24",
                "label": "Week 24"
              },
              {
                "value": "Week 26",
                "label": "Week 26"
              },
              {
                "value": "Weeks 4-24",
                "label": "Weeks 4-24"
              },
              {
                "value": "End of Treatment",
                "label": "End of Treatment"
              }
            ]
          }
        },
        {
          "oid": "IT.ADLBH.LBSEQ",
          "name": "LBSEQ",
          "label": "Sequence Number",
          "dataType": "integer",
          "sasFormat": null,
          "mandatory": false,
          "keySequence": 4,
          "methodOid": "MT.ADLBH.LBSEQ",
          "codelist": null
        },
        {
          "oid": "IT.ADLBH.STUDYID",
          "name": "STUDYID",
          "label": "Study Identifier",
          "dataType": "text",
          "sasFormat": null,
          "mandatory": false,
          "keySequence": null,
          "methodOid": "MT.ADLBH.STUDYID",
          "codelist": null
        },
        {
          "oid": "IT.ADLBH.SUBJID",
          "name": "SUBJID",
          "label": "Subject Identifier for the Study",
          "dataType": "text",
          "sasFormat": null,
          "mandatory": false,
          "keySequence": null,
          "methodOid": "MT.ADLBH.SUBJID",
          "codelist": null
        },
        {
          "oid": "IT.ADLBH.TRTP",
          "name": "TRTP",
          "label": "Planned Treatment",
          "dataType": "text",
          "sasFormat": null,
          "mandatory": false,
          "keySequence": null,
          "methodOid": "MT.ADLBH.TRTP",
          "codelist": {
            "name": "ARM",
            "items": [
              {
                "value": "Placebo",
                "label": "Placebo"
              },
              {
                "value": "Xanomeline Low Dose",
                "label": "Xanomeline Low Dose"
              },
              {
                "value": "Xanomeline High Dose",
                "label": "Xanomeline High Dose"
              }
            ]
          }
        },
        {
          "oid": "IT.ADLBH.TRTPN",
          "name": "TRTPN",
          "label": "Planned Treatment (N)",
          "dataType": "integer",
          "sasFormat": null,
          "mandatory": false,
          "keySequence": null,
          "methodOid": "MT.ADLBH.TRTPN",
          "codelist": {
